timestamp,gyrox,gyroy,gyroz,accx,accy,accz
10,-39.06,209.37,-58.31,-7.46,-4.72,-24.35
20,-81.62,206.75,-54.88,-6.69,-4.87,-23.07
30,-81.62,206.75,-54.88,-6.42,-3.91,-20.36
40,-121.62,198.31,-53.06,-6.11,-3.89,-19.55
50,-121.19,211.69,-45.88,-5.7,-4.17,-18.93
60,-119.25,216.44,-48.75,-5.63,-4.09,-18.41
70,-121.06,220.44,-51.56,-5.28,-3.48,-16.6
80,-121.06,220.44,-51.56,-4.84,-3.17,-15.61
90,-122.06,222.56,-53.31,-4.41,-2.58,-14.51
100,-97.75,215.06,-57.69,-3.83,-1.72,-12.4
110,-67.44,205.62,-58.38,-3.24,-1.4,-11.78
120,-33.69,193.44,-59.44,-2.81,-1.09,-11.34
130,-33.69,193.44,-59.44,-2.42,-0.77,-10.91
140,-1.5,178.25,-59.69,-1.56,-0.74,-10.5
150,42.44,137.25,-61.13,-1.26,-0.69,-10.54
160,50.38,115.5,-68.81,-1.18,-0.03,-10.55
170,57.13,96.31,-69.75,-1.54,1.8,-10.18
180,57.13,96.31,-69.75,-1.54,1.8,-10.18
190,61.63,69.31,-59.75,-1.35,2.16,-10.73
200,28.75,14,-28.25,-1.06,2.2,-13.33
210,5.62,7.06,-12.94,-0.95,2.18,-14.58
220,-9.44,8.25,-1.75,-0.94,2.18,-14.54
230,-9.44,8.25,-1.75,-0.94,2.18,-14.54
240,-19.06,6.62,2.81,-1.03,2.59,-14.58
250,-32.69,-9.75,13.81,-1.57,4.48,-16.18
260,-32.44,-16.31,22.56,-1.91,5.23,-17.09
270,-18.94,-11.81,32.06,-2.6,6.87,-18.01
280,-18.94,-11.81,32.06,-2.6,6.87,-18.01
290,12.81,2.75,41.31,-3.26,7.94,-18.12
300,81.19,30.81,86.44,-4.04,9.13,-19.26
310,78.87,42,119.5,-3.81,8.08,-20.59
320,47.44,49.94,150.44,-3.5,7.19,-20.33
330,47.44,49.94,150.44,-3.5,7.19,-20.33
340,11.19,53.81,178.81,-3.26,6.16,-19.59
350,-10.19,58.31,216.19,-2.53,3.04,-17.8
360,-10.19,58.31,216.19,-2.45,2.23,-17.74
370,-5.19,59.13,228.37,-2.36,1.32,-17.97
380,-4.69,60.19,240.87,-2.36,1.32,-17.97
390,-16.94,61.56,253.62,-1.58,-1.31,-17.9
400,-36.56,62.06,262.87,-0.47,-3.71,-16.64
410,-48.88,61.75,267.87,0.46,-6.65,-15.36
420,-49.13,62.19,269.12,1.28,-7.89,-14.92
430,-42.5,60.56,264.62,1.28,-7.89,-14.92
440,-35.63,56.94,254,2.09,-9.1,-14.59
450,-34.31,52,237.31,3.75,-10.48,-13.04
460,-36.75,44.06,214.69,3.69,-10.5,-12.98
470,-41.69,30.81,194.12,3.99,-11.21,-13.03
480,-62.13,7.62,184.75,3.99,-11.21,-13.03
490,-91.06,-23.25,174.12,5.04,-13.33,-13.43
500,-106,-50.44,152.5,4.95,-13.95,-14.09
510,-98.44,-74.62,121.12,3.81,-13.44,-16.57
520,-74.56,-93.75,87.06,3.74,-13.98,-18.86
530,-49.56,-113,63.06,3.74,-13.98,-18.86
540,-43.88,-134.87,40.25,3.96,-14.7,-21.62
550,-55,-144.62,-0.06,2.8,-9.81,-26.19
560,-54.06,-125.31,-43.75,1.67,-7.89,-27.32
570,-16.5,-95,-71.06,1.62,-7.01,-28.86
580,32.5,-56,-81.19,1.62,-7.01,-28.86
590,63.63,-7.12,-87.06,2.01,-5.99,-29.53
600,64.19,25.69,-95.81,2.32,-3.96,-29.22
610,51.06,49.75,-107.25,2.13,-2.67,-28.64
620,44.31,74.06,-116.62,1.33,-0.15,-26.8
630,47.31,99.31,-115.06,1.33,-0.15,-26.8
640,58.13,122.62,-101.31,1.2,0.3,-26.14
650,66.56,145.69,-84.75,2.29,-0.89,-25.47
660,53.69,169.81,-74.44,2.61,-0.87,-24.33
670,16.12,189.06,-69.31,2.68,-0.82,-23.15
680,-24.56,206.81,-65.44,2.68,-0.82,-23.15
690,-58.94,223.75,-58.44,2.73,-0.65,-21.81
700,-80.12,239.06,-45.5,3.67,-0.56,-17.54
710,-91.06,251.5,-28,4.51,-1.05,-16.33
720,-102,258,-14.31,5.9,-2.35,-14.2
730,-116.25,258,-7.44,5.9,-2.35,-14.2
740,-135.56,255.31,-6.62,6.67,-2.57,-12.94
750,-149.31,252.69,-10.75,7.56,-1.59,-8.12
760,-143.87,249.69,-16.06,7.75,-1.08,-6.66
770,-121,244.31,-17.94,8.47,-0.62,-5.39
780,-87.12,239.37,-15.81,8.47,-0.62,-5.39
790,-47,238.19,-15.19,8.71,-0.43,-4.31
800,-3.69,253.56,-15.81,9.75,0.48,-1.74
810,39.88,263.12,-9.31,9.09,-0.63,-0.52
820,77.44,203.81,11.06,10.78,-2.43,-0.41
830,104.62,135.81,29.31,10.78,-2.43,-0.41
840,112.69,52.44,50.63,10.67,-4.4,-2
850,96.75,-31.06,60.94,10.96,-5.91,-4.12
860,70.62,-88,58,10.61,-7.4,-6.59
870,46.13,-118.94,44.88,9.9,-8.99,-9.08
880,28.62,-145.87,28.94,9.55,-9.61,-10.02
890,5.19,-156.44,7.5,9.74,-10.14,-10.99
900,-26.87,-137.31,-24.37,9.33,-10.14,-13.31
910,-49.88,-108.75,-49.19,8.67,-10.62,-13.56
920,-56.75,-93.94,-79.87,8.42,-9.97,-13.57
930,-47.31,-84,-109.75,7.74,-8.73,-13.46
940,-23.5,-70.87,-140.69,7.22,-7.31,-12.96
950,16.25,-51.25,-168.5,6.56,-5.77,-12.15
960,61.06,-42.94,-189.69,6.22,-4.48,-11.71
970,99.81,-49,-203.5,5.79,-1.9,-11.04
980,130.37,-66.19,-211.25,5.61,-0.33,-10.83
990,158.37,-90.37,-213.81,5.06,1.32,-10.68
1000,191,-115.06,-206.37,4.19,3.81,-12.23
1010,218.75,-139.94,-191,4.08,4.16,-13.97
1020,228.44,-162.25,-176.81,4.24,4.32,-15.91
1030,212.62,-174.81,-167.56,3.83,4.68,-18.09
1040,172.94,-172,-155.81,3.1,6.26,-21.26
1050,123.56,-159.94,-139.75,2.67,7,-21.99
1060,81.12,-141.44,-120.87,2.44,7.72,-22.57
1070,50.75,-109.31,-98.75,2.14,8.76,-22.71
1080,30.94,-68.69,-71.31,1.93,8.75,-22.01
1090,15.81,-32.63,-40.25,2.07,8.28,-21.38
1100,-4.31,-1,-12.19,2.43,7.47,-20.41
1110,-39.06,18.25,10.94,3.04,5.24,-17.7
1120,-83.75,26.75,27.62,3.46,4.24,-15.87
1130,-121,26.44,34.63,3.47,3.48,-13.84
1140,-137.12,19.94,34.69,3.24,2.81,-10.59
1150,-129.56,9.19,31.56,2.89,2.97,-9.25
1160,-99.62,-11.69,29,2.25,3.13,-8.29
1170,-51.69,-40.44,31,1.62,3.3,-8.26
1180,4.44,-67.69,39.81,1.65,2.62,-9.58
1190,47.5,-85.06,49.19,1.7,1.57,-11.25
1200,58.56,-92.12,53.31,1.54,0.74,-12.67
1210,37.56,-93.75,55.31,1.42,-0.36,-13.81
1220,-1.25,-98.87,56.88,1.03,-0.96,-13.83
1230,-39.19,-107.19,53.06,0.92,-1.09,-13.51
1240,-57.38,-115.56,43.5,0.1,0.35,-11.53
1250,-41.5,-129.37,39.06,-0.47,1.03,-11.24
1260,0.88,-143.69,44.06,-0.73,1.08,-11.84
1270,39.88,-152.69,54.63,-0.72,0.56,-12.74
1280,50.19,-161,61.75,-0.14,-0.39,-13.81
1290,31.12,-176.75,62.81,0.18,-0.31,-13.43
1300,6.44,-205,63.44,-1.19,-0.08,-13.26
1310,9.38,-233.25,65.94,-1.48,-1.02,-15.1
1320,32.44,-254.75,62.31,-2.53,-1.65,-17.01
1330,51.19,-261.94,48.38,-3.02,-0.96,-17.85
1340,80,-260.75,40.44,-3.69,-0.28,-18.29
1350,113.19,-250.94,46.25,-3.22,-0.27,-20.94
1360,115.19,-240.31,64.31,-4.12,-1.93,-22.1
1370,64.81,-246.37,78.12,-4.46,-2.9,-22.63
1380,-3.06,-270.37,88.19,-4.43,-5.78,-24.55
1390,-55.44,-294.94,87.5,-4.61,-6.91,-25.75
1400,-82.5,-303.87,65,-4.21,-7.46,-26.61
1410,-79.81,-295.06,19,-5.57,-4.62,-28.29
1420,-48.31,-274.75,-19.75,-6.81,-2.95,-29.29
1430,-4,-241.31,-32.81,-7.44,-2.26,-30.53
1440,26.25,-206.19,-31.12,-7.95,-2.49,-32.34
1450,25.19,-170.25,-28.75,-8.05,-3.42,-35.93
1460,4.94,-128.19,-32.25,-8.33,-3.23,-36.67
1470,-2.62,-67.56,-40.25,-8.66,-2.37,-36.31
1480,17.69,6.44,-39.81,-8.49,-2.07,-33.92
1490,44,73.75,-35.44,-8.22,-2.6,-32.68
1500,40.25,118.44,-38.88,-7.79,-2.38,-31.19
1510,15.88,149.62,-43.5,-7.57,-1.61,-29.2
1520,-3.31,175.06,-41.63,-7.35,-0.51,-25.47
1530,-14.69,196.62,-36.56,-7.22,-0.5,-23.79
1540,-22.87,209.31,-31.31,-7.01,-0.53,-22.31
1550,-27.62,213.44,-27.19,-6.62,-0.49,-20.19
1560,-30.06,216.56,-24.37,-6.26,-0.59,-19.47
1570,-34.31,219.44,-22.94,-5.83,-0.66,-18.64
1580,-38.63,219.25,-21.69,-5.32,-0.64,-16.9
1590,-43.19,216.12,-19.06,-4.88,-0.69,-16.27
1600,-49.5,209.25,-16.62,-4.36,-0.68,-15.64
1610,-54.75,197.62,-16.19,-4.01,-0.57,-15.21
1620,-55.75,184.56,-15.81,-3.54,-0.36,-14.23
1630,-52.5,173.87,-13.75,-3.08,-0.45,-13.73
1640,-47.44,162,-12.63,-2.7,-0.56,-13.27
1650,-42,144.62,-15,-2.09,-0.51,-12.45
1660,-32.94,125.12,-20.81,-1.82,-0.26,-12.25
1670,-19.06,107.87,-27.87,-1.57,0.16,-12.07
1680,-0.5,93.19,-38.06,-1.68,1.01,-11.74
1690,23.12,79.12,-45.06,-1.74,3.23,-11.69
1700,40.94,65.06,-47.31,-1.66,4.26,-11.82
1710,46.38,44.56,-45.5,-2.76,5.21,-12.16
1720,38.63,12.31,-40.63,-3.27,8.41,-14.06
1730,25.69,-18.81,-24.75,-4.21,9.55,-15.32
1740,13.75,-37.69,1.94,-4.67,10.4,-16.53
1750,8.31,-45.63,34.69,-4.77,10.53,-17.85
1760,9.31,-36.88,64.5,-5.06,10.27,-19.87
1770,11.75,-16.62,89.25,-5.41,10.24,-20.36
1780,10.31,7.56,113.56,-5.84,10.16,-20.68
1790,-2.37,32.94,142,-6,9.08,-19.94
1800,-28.06,53.25,172.69,-5.87,8.09,-18.87
1810,-59.56,65.44,204.44,-5.46,6.8,-17.71
1820,-91.87,68,230.62,-4.13,4.06,-15.48
1830,-119.87,66.69,250.5,-3.45,2.77,-14.14
1840,-139.37,57.44,266.06,-2.66,1.33,-13.06
1850,-148,37,272.87,-1.92,-0.11,-12.56
1860,-147.75,12.5,268,-0.61,-2.6,-12.45
1870,-141.44,-12.56,252.19,-0.41,-3.02,-12.8
1880,-131.12,-38.63,233.56,-0.68,-3.32,-13.54
1890,-124.12,-65,221.69,-0.27,-5.07,-16.45
1900,-122.69,-86.37,213.31,0.17,-6.03,-18.06
1910,-120.25,-90.06,197.37,0.51,-6.66,-18.98
1920,-108.87,-78.56,173.94,0.75,-7.09,-19.31
1930,-84.37,-63.63,144.56,0.62,-6.87,-18.7
1940,-43.75,-52.31,116.06,0.83,-6.75,-18.79
1950,0.06,-46.63,91.87,1.04,-6.77,-19.41
1960,28.25,-44.75,67.75,0.91,-6.37,-21.29
1970,33.81,-40.13,46.25,0.65,-5.9,-21.8
1980,24.5,-33.56,31.62,0.58,-5.57,-22.12
1990,9.94,-28,22.69,0.39,-5.55,-22.6
2000,-5.94,-20.81,14.69,0.98,-6.02,-23.22
2010,-16.81,-9.44,-0.25,1.28,-5.77,-23.04
2020,-12.63,5.06,-22.81,1.56,-5.06,-22.74
2030,7.25,20.19,-46.75,1.9,-2.87,-22.24
2040,33.56,31.56,-67.56,1.89,-1.67,-22.19
2050,58.38,39,-82.12,1.91,-0.76,-22.49
2060,71.19,40.25,-92.12,2.02,1.12,-23.54
2070,73.12,33.31,-102.75,1.92,2.34,-24.23
2080,82.56,27.87,-110.87,1.48,3.29,-25.28
2090,105.25,37.69,-112.31,1.36,4.01,-26.4
2100,124.75,59.69,-107.87,1.1,4.97,-28.49
2110,125.25,84.87,-96.94,1.19,4.99,-29.47
2120,104.81,115.19,-84.5,1.2,5.17,-30.02
2130,73.31,156.19,-70.06,0.76,5.84,-28.72
2140,42.19,202.87,-50.38,0.81,5.67,-26.84
2150,14.06,245.56,-26.69,1.3,5.14,-24.54
2160,-14.06,273.62,-4.94,1.95,4.47,-22.67
2170,-44.75,286.69,10.63,3.04,3.46,-18.98
2180,-68.81,292.56,23.37,4.01,2.83,-17.23
2190,-84.31,293.19,34.81,4.93,2.05,-15.56
2200,-93.37,285.06,39.25,6.15,1.03,-12.69
2210,-95.62,268.75,36.75,7.01,1.1,-11.46
2220,-85.25,250.06,30.94,7.72,1.21,-10.54
2230,-62.75,234.06,23.69,8.38,1.41,-9.96
2240,-37.31,225.37,16.19,8.92,1.93,-9.04
2250,-17.56,222.56,10.38,9.06,2.2,-8.44
2260,-7.19,220.56,8.19,9.1,2.46,-7.72
2270,-5.69,216.5,10.81,9.54,2.45,-6
2280,-10.88,204,18.31,9.57,1.94,-5.47
2290,-23.87,178.75,23.62,10.28,1.66,-5.35
2300,-41.25,147.87,27.12,10.92,1.06,-4.93
2310,-58.88,100.12,28.81,11.1,0.74,-4.68
2320,-64.87,44.06,28.06,11.23,0.7,-5.15
2330,-51.56,8.13,25.12,11.47,0.57,-6.21
2340,-28.81,-2.56,23.44,11.29,-0.43,-7.98
2350,-11.5,3.19,19.37,10.91,-0.86,-8.27
2360,-8.81,5.37,13.81,11.14,-1.03,-8.05
2370,-18.06,-5.87,9.88,10.93,-1.55,-8.11
2380,-27.69,-22.5,7.25,10.53,-2.07,-8.37
2390,-35.13,-45.13,9.88,10.66,-2.8,-9.01
2400,-40.88,-66.5,11.25,10.35,-3.52,-9.87
2410,-48.06,-83.37,12.69,10.04,-5.63,-10.63
2420,-54,-93.87,11.38,10.23,-7.31,-11.7
2430,-56.81,-88.87,-1.87,10.42,-8.81,-12.23
2440,-56.81,-88.87,-1.87,10.41,-10.25,-13.42
2450,-41.5,-88.5,-68.81,9.9,-9.67,-14.25
2460,-20.5,-87.06,-115.44,8.99,-8.11,-15.34
2470,9.38,-77.19,-153.06,8.29,-6.29,-16.24
2480,47.69,-58.31,-179.69,7.02,-2.1,-17.61
2490,47.69,-58.31,-179.69,6.79,-0.51,-17.76
2500,91.06,-25.5,-192.81,6.91,0.49,-17.06
2510,142.81,38.25,-192.62,6.94,2.13,-15.18
2520,135.75,47.25,-192.56,7.35,2.64,-14.23
2530,110.75,40.06,-196.5,7.41,3.54,-13.19
2540,110.75,40.06,-196.5,6.53,6.86,-11.29
2550,86.31,24,-207.81,6.19,8.48,-11.39
2560,82.25,-27.5,-208.87,5.74,9.87,-12.2
2570,94.31,-43.75,-197.87,5.28,11.01,-13.19
2580,103.37,-50.75,-180.25,5.13,12.48,-14.85
2590,103.37,-50.75,-180.25,4.83,13.13,-15.43
2600,107.06,-51.88,-163.37,4.41,13.69,-15.91
2610,96.56,-39,-119.56,4.18,13.97,-16.7
2620,77.56,-31.19,-87.75,4.1,13.21,-16.98
2630,48.56,-21.81,-55.75,4.4,12.29,-16.94
2640,48.56,-21.81,-55.75,4.4,12.29,-16.94
2650,15.19,-6.87,-30.19,4.94,8.81,-13.41
2660,-41.69,17.62,3.69,5.25,7.66,-12.03
2670,-59,17.44,6.81,5.44,6.94,-10.68
2680,-63.69,10.44,-0.37,5.06,7.01,-8.09
2690,-63.69,10.44,-0.37,5.06,7.01,-8.09
2700,-49.06,-1,-13.5,4.5,7.8,-7.33
2710,12.31,-48.31,-11.75,3.24,8.65,-7.56
2720,35.19,-77.75,5.87,3.17,7.46,-9.95
2730,38.44,-97.44,25.12,3.12,6,-10.9
2740,38.44,-97.44,25.12,3.12,6,-10.9
2750,25.31,-105.56,36.63,3.57,4.77,-11.71
2760,-18.87,-108.06,28.94,3.7,3.14,-10.85
2770,-23,-120.37,13.31,3.4,3.77,-10.69
2780,-3.56,-142.94,-1,2.08,5.89,-13.23
2790,-3.56,-142.94,-1,2.08,5.89,-13.23
2800,30.81,-155.87,-6.62,1.48,6.45,-14.88
2810,59.44,-133.25,25.44,1.69,5.37,-17.25
2820,32.13,-110.94,45.38,3.83,2.76,-15.58
2830,-8.75,-105,46.69,4.34,2.47,-13.99
2840,-8.75,-105,46.69,4.34,2.47,-13.99
2850,-34,-120.12,29.19,4.05,3.3,-13.02
2860,29.56,-163.69,-3.56,1.23,7.49,-14.8
2870,29.56,-163.69,-3.56,1.04,7.08,-16.81
2880,88.81,-173.56,12,0.93,5.58,-19.38
2890,116.37,-182.94,42.88,0.93,5.58,-19.38
2900,97.5,-173,69.25,1.96,2.42,-21.59
2910,46.44,-158.31,84.19,2.13,-0.25,-20.51
2920,-7.25,-156,83,3.15,-0.04,-19.09
2930,-39.56,-158.5,64.62,2.25,0.09,-19.39
2940,-40.56,-169.81,45.56,2.25,0.09,-19.39
2950,-24.69,-196.31,21.62,2.39,1.13,-20.24
2960,-2.69,-228.94,2.56,0.81,1.92,-27.54
2970,9.44,-254.87,-5.37,0.61,1.81,-29.53
2980,1.06,-260.94,-11.13,0.82,1.76,-31.22
2990,-21.75,-252.25,-18.87,0.82,1.76,-31.22
3000,-49.06,-233.44,-30.06,0.05,2.24,-33.99
3010,-67.37,-196.62,-46.25,-1.09,4.13,-34.15
3020,-64.75,-139.75,-58.88,-2.12,5.73,-33.25
3030,-38.63,-79.81,-73.37,-2.75,5.86,-33.49
3040,3.44,-27.37,-79.06,-2.75,5.86,-33.49
3050,42.25,26.5,-75.87,-2.93,5.81,-32.56
3060,63,76.81,-75.31,-3.73,7.1,-27.05
3070,75.62,117.81,-74.81,-4.04,6.45,-25.99
3080,85.06,146.69,-62.69,-3.68,5.96,-24.84
3090,79.19,165.37,-48.44,-3.68,5.96,-24.84
3100,58.56,180.06,-33.56,-3.42,4.52,-21.7
3110,31.44,187.75,-19.12,-2.82,3.33,-18.87
3120,6.5,189.44,-11.13,-2.53,2.97,-17.56
3130,-8.63,185.62,-7.56,-2.19,2.25,-15.86
3140,-13.13,177.06,-5,-2.19,2.25,-15.86
3150,-11.38,168.06,-3.56,-1.63,1.79,-15.39
3160,-9.06,159.81,-4.69,-0.64,1.34,-13.62
3170,-7.5,153.94,-10.06,-0.33,1.63,-13.05
3180,-3.44,146,-19.62,-0.26,2.03,-12.72
3190,6.37,132,-29.44,-0.26,2.03,-12.72
3200,20.62,115.19,-37.69,-0.15,2.59,-12.57
3210,35.13,98.06,-41.44,-0.04,3.84,-13.76
3220,44.31,81.81,-39.75,0,4.07,-14.3
3230,43.88,69.75,-35.44,0.08,4.63,-14.41
3240,35.06,63.13,-30.31,0.08,4.63,-14.41
3250,23.37,57,-26.19,-0.02,5.19,-14.26
3260,17.81,49.88,-22.31,-0.05,6.69,-14.49
3270,22.44,44.06,-16,-0.39,7.48,-14.86
3280,30.25,38.25,-13.56,-0.48,8.22,-15.33
3290,36.19,32.44,-8.63,-0.48,8.22,-15.33
3300,34,29.75,0.69,-0.61,8.96,-15.74
3310,17.81,24.62,13.25,-1.56,11.35,-16.42
3320,-7.31,19.31,32.75,-1.68,11.55,-16.32
3330,-32.31,16.12,60.44,-1.14,10.3,-15.49
3340,-51.69,16.81,95,-1.14,10.3,-15.49
3350,-62.63,20.25,125.75,-0.84,9.6,-14.79
3360,-65.69,23.31,147.69,-0.35,8.07,-13.33
3370,-60.63,24.75,164.5,-0.35,8.07,-13.33
3380,-51.5,23.06,176.56,-0.19,6.18,-12.26
3390,-44.81,15.69,186.75,0.06,5.2,-11.99
3400,-44.44,-0.56,199.44,0.28,3.81,-12.27
3410,-51.25,-19.31,212.56,1.48,0.42,-13.41
3420,-68.19,-37.63,218.44,2.05,-0.88,-13.77
3430,-90.62,-58.44,213.25,2.57,-1.7,-14.12
3440,-107,-81.44,197,2.63,-1.99,-14.54
3450,-108.06,-101.37,175.87,2.47,-1.7,-16.11
3460,-91.69,-115.12,157.44,2.35,-1.51,-17.32
3470,-62.06,-116.5,145.25,2.28,-1.52,-18.55
3480,-29.06,-104.37,136.25,2.52,-1.97,-20.36
3490,-3.62,-85,128.81,2.62,-2.35,-20.89
3500,7.25,-65.12,124.25,2.84,-2.99,-21.03
3510,0.37,-51.5,118.81,3.41,-4.3,-20.81
3520,-18.94,-47.81,109,3.6,-4.62,-20.7
3530,-41.75,-50.69,93.5,3.68,-4.75,-20.67
3540,-55.38,-53.5,74,3.75,-4.37,-20.45
3550,-53.75,-53.25,54.5,3.52,-3.49,-20.49
3560,-39,-46.13,38.5,3.42,-3.25,-20.41
3570,-20.62,-35,27.06,3.38,-3.19,-20.34
3580,-9.31,-30.75,17.25,3.68,-3.37,-20.81
3590,-8.13,-29.31,4.25,3.7,-3.03,-21.06
3600,-11.69,-31,-12.75,3.64,-2.45,-21.53
3610,-10.88,-33.38,-30,3.74,-1.56,-22.12
3620,0.5,-25.81,-46.56,3.48,0.43,-23.24
3630,18.44,-14.31,-57.38,3.68,1.19,-24.21
3640,34.19,-7.69,-66.44,3.75,2.01,-25.5
3650,43.13,5.94,-74.94,3.39,4.33,-26.73
3660,47.63,28.06,-79,3.35,5.22,-27.18
3670,47.56,48.69,-73.81,3.45,5.76,-27.87
3680,37.13,69.87,-65.44,3.38,6.31,-28.35
3690,16.87,94.06,-57.69,3.15,8.04,-27.89
3700,0.81,121.12,-46.13,2.6,8.56,-27.11
3710,-0.13,150.62,-29,2.57,8.8,-26.45
3720,6.25,179.37,-7.56,2.53,7.89,-25.5
3730,5.12,206.69,13.81,2.79,7.09,-25.3
3740,-18.62,228.31,33.88,2.97,6.34,-24.59
3750,-58,248.56,52.94,3.32,4.35,-21.15
3760,-90.62,267.75,71.56,4,2.96,-19.19
3770,-101.75,283.31,84.81,4.86,1.72,-17.38
3780,-88.56,296.25,85.06,5.94,0.79,-15.65
3790,-57.19,310.75,69.62,6.72,1.31,-11.84
3800,-13,325,41.19,6.78,2.88,-9.6
3810,41.63,330.44,17.19,6.97,4.06,-8.2
3820,90,315.62,17,7.49,3.94,-8.17
3830,108.62,289.37,29.25,8.26,3.21,-8.32
3840,92.12,264.75,42.81,8.99,2.3,-8.06
3850,52.5,245.31,50.5,9.6,1.63,-7.33
3860,10.69,230.37,50.56,9.8,0.94,-5.06
3870,-18.87,219.94,48.75,10.19,0.41,-4.19
3880,-34.19,227.87,47.06,10.34,-0.33,-3.42
3890,-40.69,242.94,44.69,10.38,-1.26,0.14
3900,-42.94,186.94,38.31,12.47,-1.04,1.12
3910,-44.06,110.37,26.37,12.27,-1.57,1.74
3920,-40.25,34.25,19.62,12.15,-2.08,1.32
3930,-29.44,-47.06,10.81,12.02,-2.84,-2.36
3940,-10.75,-109,4.44,11.68,-3.23,-4.5
3950,15.69,-141.19,-0.62,11.29,-3.78,-6.37
3960,43.63,-156.06,-3.75,11.09,-4.92,-8.47
3970,63.69,-177.44,-5.94,11.04,-5.44,-9.94
3980,64.62,-203.12,-8.06,10.35,-6.43,-12.04
3990,47.31,-200.69,-16.31,11.2,-8.69,-16.91
4000,16.81,-179.37,-38.13,10.71,-8.81,-19.18
4010,-13.56,-162.06,-71.19,10.17,-7.76,-21.07
4020,-33.31,-109.06,-110,9.15,-5.96,-21.41
4030,-34.75,-29,-132.06,8.34,-3.07,-17.67
4040,-10.56,45.31,-136.81,8.39,-2.66,-15.38
4050,23.87,92.31,-134.69,8.92,-2.76,-13.49
4060,46.69,104.69,-139.37,9.43,-2,-10.93
4070,54.63,100.56,-157.37,9.25,-0.73,-9.52
4080,58.44,87.19,-178.81,9.17,0.77,-8.22
4090,67.62,60.81,-196.12,8.84,2.38,-7.35
4100,87.75,26.62,-207.12,8.11,5.61,-7.56
4110,114.87,-7,-210.56,7.77,6.87,-8.82
4120,138.62,-34.88,-209,7.54,8,-10.22
4130,150.44,-51.81,-203.69,6.86,10.01,-11.78
4140,151.69,-61.44,-194.12,6.46,10.8,-12.46
4150,146.75,-67.87,-177.87,6.26,11.37,-13.11
4160,136,-68.69,-157.44,6.01,12.27,-13.87
4170,119.19,-65.31,-136.56,5.47,12.59,-14.31
4180,92.5,-61.88,-115.37,5.08,12.77,-14.38
4190,56.44,-57.56,-89.62,4.99,12.71,-13.99
4200,21.19,-55.19,-61.25,5.12,11.67,-12.77
4210,-3.12,-53.56,-34.81,5.22,10.9,-12.13
4220,-11.81,-51.94,-15.88,5.27,10.16,-11.52
4230,-4.75,-49.69,-4.94,5.07,8.73,-10.56
4240,13.81,-48.13,1.75,5.06,8.03,-10.44
4250,30.69,-47.5,3.12,4.9,7.68,-10.11
4260,36.38,-48.75,-2,4.44,7.84,-9.71
4270,32.25,-58.75,-6.31,3.05,8.67,-9.1
4280,26.06,-81.25,0.06,2.61,8.74,-9.14
4290,26.25,-107.87,17.87,2.32,8.09,-9.87
4300,31.81,-125.56,40.19,2.9,5.78,-11.45
4310,32.25,-130.56,58.13,3.06,4.43,-11.6
4320,22.75,-127.44,68.94,3.12,3.2,-11.2
4330,6.37,-127.12,69.44,3.11,2.24,-10.5
4340,-8.88,-135.37,58.25,2.64,1.78,-8.41
4350,-15.25,-152.19,39.38,2.08,2.34,-7.43
4360,-5.12,-178.56,20.06,1.11,3.19,-6.76
4370,19.19,-212.25,10.81,-0.43,3.89,-7.26
4380,50.81,-259.56,18.62,-0.94,2.94,-9.04
4390,81.5,-311.37,31.56,-2.4,2.14,-11.16
4400,104.62,-348.75,36.69,-3.4,0.96,-15.2
4410,120.62,-366.94,37.56,-4.34,0.26,-16.66
4420,109,-371.5,38.31,-5.31,-0.32,-17.26
4430,72.87,-390.12,36,-5.61,-0.4,-18.34
4440,27.62,-428.5,28.31,-7.72,-0.74,-21.33
4450,-8.38,-467.87,14.56,-8.32,-0.52,-22.79
4460,-22.5,-489.5,-2.25,-10.06,-0.49,-24.87
4470,-23.62,-490.62,-14.13,-10.53,-0.61,-29.64
4480,-28.81,-467.75,-22.31,-10.74,-1.13,-31.2
4490,-52.75,-435.06,-31.5,-11.83,-0.87,-31.98
4500,-76.75,-397.56,-48.31,-12.03,-0.61,-32.35
4510,-76.37,-349.06,-64.94,-13.17,0.39,-33.25
4520,-53.31,-294.62,-87.06,-14,1.46,-33.13
4530,-13.06,-228.56,-97.37,-14.29,1.84,-32.76
4540,25.25,-158.87,-92.06,-13.87,1.2,-30.82
4550,40.63,-103.5,-82.62,-13.47,0.62,-29.7
4560,26.87,-74.06,-78.06,-13.19,0.21,-29.66
4570,-3.37,-66.62,-79.44,-12.94,0.05,-30.91
4580,-23.69,-49,-89.75,-13.33,1.69,-31.6
4590,-9.69,1.81,-105.37,-13.9,3.07,-30.6
4600,29,72.31,-114.56,-14.5,4.33,-29.14
4610,64.37,137.19,-111.19,-14.81,5.68,-26.2
4620,72.06,183.62,-100.37,-14.78,5.99,-24.9
4630,47,206,-82.31,-14.45,6.04,-23.67
4640,6.31,216.12,-56.69,-13.59,5.24,-20.77
4650,-33.13,223.69,-29.5,-12.94,4.59,-19.57
4660,-60.81,229.5,-5.69,-12.17,3.95,-18.56
4670,-75.5,233.94,12.06,-11.3,3.19,-17.88
4680,-82.56,237.06,23.62,-10.12,1.97,-16.8
4690,-85.37,240.25,26.31,-9.55,1.89,-16.24
4700,-80.87,248.25,24.87,-9.02,1.92,-15.51
4710,-66.69,259.94,23.62,-8.43,1.95,-13.82
4720,-47.56,270.25,22.62,-7.97,2.16,-13.08
4730,-30.06,275.94,22.25,-7.43,2.13,-12.43
4740,-22.19,271.81,24.44,-6.59,1.95,-11.9
4750,-27.37,257.69,25.62,-5.23,1.94,-10.3
4760,-39.13,236.37,23.62,-4.5,2.18,-9.65
4770,-44.31,210.69,20.31,-3.96,2.61,-9.14
4780,-36,183.56,16.87,-3.49,3.41,-8.44
4790,-15.75,159.31,16.25,-3.12,3.45,-8.5
4800,5.75,137.75,19.75,-2.86,3.28,-8.54
4810,17.94,118.19,21.87,-2.73,3.29,-8.34
4820,20.62,100,20.19,-2.04,3.57,-7.81
4830,14,79.19,17.87,-2.21,3.75,-7.46
4840,4.69,52.81,12.06,-2.29,4.53,-7.46
4850,-4.06,11.63,8.63,-3.34,6.6,-8.71
4860,-12.5,-56,15.25,-3.77,7.66,-10.77
4870,-11.69,-124.5,24.19,-4.35,8.7,-12.96
4880,3.06,-171,28.31,-6.06,11.45,-18.47
4890,37.06,-160.94,35.31,-6.61,12.38,-19.94
4900,37.06,-160.94,35.31,-7.25,12.96,-20.19
4910,84.75,-45.44,96.94,-7.53,12.82,-19.5
4920,71,-2.5,142.5,-6.89,10.54,-18.39
4930,24.25,2.31,186.44,-6.42,8.96,-18.56
4940,-39.38,-10.88,222.75,-5.86,7.42,-18.67
4950,-92.94,-15.63,248.19,-5.18,4.78,-16.71
4960,-118.69,-7.94,263.62,-4.65,3.64,-15.44
4970,-119.44,-1.44,274.5,-4.18,2.39,-14.54
4980,-109.87,-6.62,278.44,-3.84,1.33,-14.21
4990,-98.81,-21.75,274.06,-2.97,-0.77,-14.98
5000,-88.81,-39.69,264.19,-2.64,-1.49,-15.57
5010,-80.44,-55.44,252.56,-2.29,-2.39,-16.29
5020,-74.44,-66.75,239.44,-1.25,-4,-17.89
5030,-71.12,-74.06,221.25,-1.27,-4.41,-18.6
5040,-66.19,-73.37,201.06,-0.74,-4.95,-18.91
5050,-66.19,-73.37,201.06,0.01,-5.46,-18.91
5060,-57.94,-63.25,180.62,0.82,-5.59,-18.33
5070,-23.12,-38.06,116,0.77,-4.58,-17.94
5080,-0.62,-32.25,76,0.33,-3.15,-17.62
5090,20.56,-30.94,45.38,-1.28,-1,-17.81
5100,20.56,-30.94,45.38,-1.35,-1.16,-18.87
5110,35.69,-37.06,34.38,-1.2,-1.55,-20.05
5120,6.31,-67.37,33.38,-1.43,-1.75,-22.85
5130,-26.5,-84.94,25.75,-1.74,-1.56,-23.92
5140,-47,-93.94,13.88,-2.04,-0.97,-25.11
5150,-47,-93.94,13.88,-2.24,-0.28,-26.64
5160,-45.5,-93.56,-2,-2.09,0.64,-29.35
5170,-5.87,-43.31,-24.19,-2.14,1.28,-30.25
5180,11.94,0.13,-34.75,-2.17,2.06,-30.54
5190,23.87,51.31,-41,-1.48,3.35,-29.06
5200,23.87,51.31,-41,-1.21,4.13,-27.44
5210,33.5,100.62,-42.44,-0.79,4.8,-26.07
5220,69.19,173.25,-47.25,-0.37,5.48,-25.13
5230,92.62,190.25,-51.19,-0.23,7.29,-23.99
5240,117.56,202.31,-53.19,-0.12,7.58,-23.97
5250,117.56,202.31,-53.19,-0.12,7.58,-23.97
5260,137.56,225,-34.56,0.15,7.29,-24.3
5270,105.56,235.37,-21.69,0.49,6.07,-25.06
5280,45.19,247.25,-4.69,0.96,5.46,-24.23
5290,-21.25,263.06,11.63,0.88,5.25,-19.62
5300,-21.25,263.06,11.63,0.88,5.25,-19.62
5310,-80.37,306.94,37.75,1.81,5.3,-16.69
5320,-57.75,313.25,49.75,3.76,4.64,-13.64
5330,-30.56,309.37,58.75,5.49,3.61,-11.97
5340,-11.44,280.12,60.5,6.35,2.96,-11.64
5350,-11.44,280.12,60.5,6.35,2.96,-11.64
5360,-23.62,262.62,53.19,7.15,2.52,-11.12
5370,-38.56,247.06,40.81,7.62,3.55,-8.41
5380,-37,219,32.06,7.63,4.16,-7.5
5390,-37,219,32.06,7.89,4.4,-6.81
5400,-37,219,32.06,7.89,4.4,-6.81
5410,-20.56,201.62,58.56,8.26,3.46,-5.93
5420,-20.56,201.62,58.56,9.33,1.72,-4.31
5430,-29.56,194.56,71.94,11.22,-0.48,-1.38
5440,-38.63,197.06,77.37,11.46,-0.81,-0.81
5450,-25.56,103.56,63,11.46,-0.81,-0.81
5460,-4.81,22.31,41.38,11.7,-0.9,-1.09
5470,12.13,-50.63,22.25,10.43,-0.07,-8.59
5480,20,-95.87,11.38,9.86,0.17,-10.06
5490,19.19,-119.62,12,9.45,0.24,-11.11
5500,9.25,-145.81,19.87,9.45,0.24,-11.11
5510,-11.19,-158.31,25.31,9.91,-0.55,-13.31
5520,-31.12,-132.31,17.56,9.7,-1.58,-16.25
5530,-52.88,-115.62,13.38,9.64,-2.25,-18.01
5540,-70.62,-110.62,6,9.39,-2.09,-18.6
5550,-73.56,-99.25,-4.75,9.39,-2.09,-18.6
5560,-58.44,-80.56,-12.44,8.99,-2,-19.49
5570,-33.94,-44.94,-16.87,8.96,-2.95,-20.77
5580,-13.38,5.37,-22.31,9.1,-3.54,-19.47
5590,-3.5,53.31,-31.87,9.4,-4.04,-17.51
5600,1.56,86.31,-46.5,9.4,-4.04,-17.51
5610,13.19,106,-67.31,9.43,-4.21,-13.43
5620,32.88,111.25,-88.75,9.46,-4.12,-10.38
5630,55.88,103.87,-107.62,9.6,-4.44,-9.58
5640,74.94,85.12,-125.37,9.88,-4.64,-8.66
5650,88.87,62.5,-153.12,9.88,-4.64,-8.66
5660,111.19,47.38,-199.69,9.36,-2.62,-7.57
5670,157.37,33.81,-237.19,6.28,4.94,-6.66
5680,214,2.69,-233.37,6.49,4.75,-8.82
5690,249.75,-40.19,-205.75,6.73,4.13,-11.3
5700,244.19,-71.5,-185.69,6.73,4.13,-11.3
5710,202.62,-86.69,-179,6.86,3.87,-13.21
5720,144.19,-88.81,-176.56,6.87,4.61,-15.03
5730,84.25,-81.12,-178.31,6.99,5.48,-13.97
5740,41.06,-75.87,-192.75,5.41,10.02,-11.83
5750,31.87,-79.37,-215.81,5.41,10.02,-11.83
5760,55.19,-88.75,-224.87,4.18,12.71,-11.75
5770,93.19,-105.31,-201.37,2.19,15.32,-16.88
5780,122.87,-117.81,-152.69,2.69,14.05,-19.36
5790,123.62,-108,-99.56,2.99,12.73,-20.61
5800,85.87,-76.31,-58.56,2.99,12.73,-20.61
5810,25,-39.94,-30.44,3.38,11.76,-20.55
5820,-30.25,-8.81,-9.88,4.09,8.91,-14.26
5830,-58.88,8.56,4.19,4.29,7.91,-12.57
5840,-61.5,11.63,12,4.05,6.49,-10.47
5850,-51.56,6.19,11.63,4.05,6.49,-10.47
5860,-35.75,-3.25,7.5,3.67,6.38,-9.52
5870,-14.94,-17.5,4.5,2.86,6.48,-8.23
5880,7.19,-39.81,7.69,2.86,6.48,-8.23
5890,21.12,-71.75,14.31,2.62,5.98,-8.66
5900,24.87,-101.31,18.69,2.31,5.68,-9.62
5910,23,-123.69,24.06,2.21,5.55,-10.45
5920,25.94,-133.12,32.06,1.64,4.61,-12.23
5930,23.37,-131,41.19,1.33,3.61,-12.67
5940,7.81,-131.25,44.44,1.28,2.88,-12.66
5950,-13,-137.06,41.13,1.14,2.06,-11.54
5960,-22.06,-147.94,30.69,0.74,2.22,-10.99
5970,-8.38,-158.75,19.31,0.38,2.69,-10.55
5980,22.44,-169.56,13.5,0,3.14,-10.41
5990,53.06,-181.5,13.38,-0.72,3.38,-11.24
6000,69.5,-196.75,16.69,-1.35,3.23,-11.92
6010,70.44,-213,20.12,-1.9,3.02,-12.43
6020,64.81,-224.25,22.25,-2.74,2.67,-12.86
6030,61.88,-231.62,22.62,-2.9,2.3,-12.48
6040,60.25,-252.06,19.44,-3.31,2,-12.33
6050,65.25,-284.44,11.63,-4.4,2.09,-12.74
6060,88.37,-310.75,8.06,-6.21,3.28,-14.42
6070,123,-328.94,15.44,-7.56,3.08,-15.6
6080,146,-348.37,30.87,-8.86,2.35,-17.42
6090,138.31,-372.37,51,-10.17,-0.18,-23.09
6100,90,-402.12,71,-10.39,-1.74,-26.52
6110,10.56,-413.19,78.69,-10.44,-3.41,-29.71
6120,-76.06,-388.87,62.5,-10.43,-4.46,-31.68
6130,-132.62,-330.56,33.69,-9.87,-3.46,-31.59
6140,-130.5,-255.62,13.5,-10.5,-2.75,-29.72
6150,-83.44,-194.5,2.06,-10.24,-2.73,-28.76
6160,-33.31,-153,-21.44,-9.65,-3.2,-29.06
6170,2.25,-124.06,-53.63,-10.26,-1.83,-28.97
6180,29.06,-102.06,-72.5,-10.79,-0.48,-29.23
6190,39.69,-81.19,-75.5,-10.89,0.77,-30.63
6200,30.62,-57.75,-73.06,-10.9,0.89,-30.99
6210,11.88,-31.87,-70.31,-10.84,0.91,-31.05
6220,-4,-3.31,-69.87,-10.95,0.89,-30.95
6230,-10.5,29.19,-71.37,-11.04,1.42,-29.79
6240,-8.81,61.75,-71.37,-11.81,1.71,-29.34
6250,-8,96.62,-66.81,-12.07,2.4,-28.83
6260,-15.69,139.69,-53.5,-12.18,2.69,-26.95
6270,-40.88,174.31,-42.63,-12.19,3.04,-25.04
6280,-66.69,192.5,-31.69,-11.86,3.26,-23.27
6290,-75.69,206,-17.06,-11.59,3.1,-21.52
6300,-76.5,215.87,-7,-10.19,2.31,-18.85
6310,-73.12,222.37,-1.94,-9.39,2.01,-17.74
6320,-60.19,227.87,-1.12,-8.74,1.65,-16.7
6330,-37.31,232.31,-6.12,-7.88,1.35,-15.05
6340,-16.81,229.56,-14.63,-7.38,1.61,-14.74
6350,-6.06,223.12,-20.25,-6.97,1.84,-14.65
6360,-7.25,217.69,-22.5,-6.44,2.11,-14.63
6370,-17.62,213.75,-20.25,-6.34,2.46,-13.47
6380,-26.37,203.81,-16.44,-5.83,2.67,-12.65
6390,-24,192,-10.94,-5.29,2.44,-11.88
6400,-14.56,176.75,-10.75,-4.35,2.2,-10.93
6410,-4.81,158.56,-12.81,-3.77,2.08,-10.82
6420,-0.13,138.87,-16.87,-3.28,2.02,-10.78
6430,1.19,118.37,-24.06,-2.95,2.9,-10.27
6440,6,96.12,-28.06,-2.83,3.51,-10.24
6450,15.94,72.69,-27.19,-2.73,3.97,-10.73
6460,25.12,55,-25.37,-2.6,4.35,-11.54
6470,31.25,47.25,-24.75,-2.69,5.28,-12.27
6480,35.94,40.31,-24.5,-2.96,6,-12.39
6490,38.88,29,-16.87,-3.14,6.53,-12.97
6500,31,17.5,-5.87,-3.08,7.3,-14.58
6510,12.13,9.81,4.06,-3.25,7.85,-14.87
6520,-3,5.25,13.69,-3.58,8.53,-14.69
6530,-0.19,0.37,26.25,-4.02,9.15,-14.61
6540,20.37,-1,41.75,-4.49,9.84,-15.81
6550,44.13,4.31,56.81,-4.78,10.32,-16.47
6560,58.88,12.63,75.19,-5.28,10.94,-17.05
6570,55.81,20.06,104.37,-5.59,10.68,-18.37
6580,29.69,27.44,139.75,-5.11,9.48,-18.77
6590,-15.19,34.25,169.44,-4.57,8.21,-18.26
6600,-54.38,36.44,190.06,-4.11,7.18,-16.88
6610,-64.94,32.31,204.5,-3.3,5.11,-14.36
6620,-54.25,22.62,213.25,-2.63,4.01,-14.18
6630,-41.75,10.75,211.81,-2.19,3.24,-14.3
6640,-30.37,-0.25,207,-2.15,2.88,-14.76
6650,-22,-9.38,209.56,-1.99,2.39,-15.42
6660,-26.25,-18.25,218.06,-1.65,1.57,-16.14
6670,-42.5,-25.56,225.62,-1.34,-0.84,-17.37
6680,-63,-25.81,229.12,-0.93,-2.04,-17.43
6690,-84.12,-27,226.56,-0.51,-3.3,-17.37
6700,-102.81,-33.94,214.81,0.09,-4.4,-17.41
6710,-114.37,-42.38,191.06,1.05,-5.87,-17.54
6720,-107.69,-48.25,155.31,1.15,-5.37,-17.49
6730,-78.5,-51.25,118.75,0.85,-4.36,-17.55
6740,-31.5,-49.31,93.56,-0.4,-2.4,-18.92
6750,11.13,-42.69,86.37,-0.56,-2.57,-20.27
6760,21.56,-34.25,85.87,-0.51,-3.18,-21.34
6770,-4.5,-30.69,83.25,-0.58,-3.81,-22.01
6780,-44,-34.75,76.12,-0.25,-4.7,-21.86
6790,-68.62,-44,61.88,-0.19,-4.65,-22.05
6800,-68.44,-46.56,42.56,-0.26,-4.34,-22.58
6810,-52,-42.31,21.62,0.11,-3.22,-24.21
6820,-26.87,-31.69,1.56,0.47,-2.45,-25.27
6830,-0.69,-10.44,-17.75,0.74,-1.59,-26.32
6840,23.56,24.62,-35.81,0.98,-0.53,-26.86
6850,48.63,67.75,-48.75,1.15,2.14,-25.76
6860,75.5,106.62,-54.44,1.11,3.15,-24.61
6870,93.87,129.75,-52.25,1.38,3.69,-23.81
6880,89.69,133.87,-47,1.9,4.43,-23.6
6890,67.56,130.62,-40.19,2.36,4.6,-23.94
6900,42.56,135.37,-34.81,2.71,4.89,-23.96
6910,30.94,149.44,-30.81,2.69,5.83,-22.9
6920,34.38,167.81,-21.94,2.94,5.78,-22.52
6930,38.88,186.94,-14.19,3.29,5.73,-22.25
6940,36.75,206.19,-8,3.56,5.8,-21.57
6950,29.5,219.44,2.56,3.88,5.32,-19.66
6960,16.56,225.87,15.75,4.58,4.68,-19.05
6970,-6,227.12,26.56,5.28,4.04,-18.53
6980,-30.94,227.62,32.75,6.03,2.98,-16.73
6990,-43.31,232.5,33.63,6.6,2.84,-15.53
7000,-37.63,243.94,29.12,7,2.95,-13.99
7010,-17.87,254.5,24.44,7.16,3.2,-12.49
7020,2.37,255.69,25.62,7.39,3.1,-10.3
7030,9.56,244,30.62,7.84,2.81,-9.62
7040,0.37,223.69,37.63,8.2,2.34,-9.09
7050,-18.44,197.37,44.94,8.93,1.03,-8.06
7060,-38.25,174.69,49,8.74,0.61,-7.42
7070,-49.38,158.37,49.06,10.52,0.09,-6.03
7080,-41.81,134.5,45,10.16,-0.92,-4.87
7090,-21.37,96.62,33.5,10.62,-1.5,-4.63
7100,-3.37,57.56,20.31,10.74,-1.47,-4.99
7110,9.75,17.94,6.12,10.32,-1.1,-5.44
7120,23.75,-18.87,0.75,9.67,-0.54,-7.78
7130,35,-45.19,4.62,8.75,-1.28,-9.65
7140,32.38,-61.94,9.63,9.63,-1.94,-11.08
7150,16.69,-66.87,7.87,9.8,-3.11,-13.05
7160,0.31,-61.63,-4.69,9.18,-2.83,-13.36
7170,-7,-57,-11.75,9.1,-2.85,-13.71
7180,-5.37,-47.25,-16.19,8.86,-3.04,-14.27
7190,-2.75,-31,-19.81,8.49,-3.69,-14.68
7200,-4.62,-15.38,-23.06,8.34,-4.16,-14.51
7210,-10.88,-3.31,-29.25,8.55,-4.59,-13.82
7220,-16.81,-0.37,-38.56,8.9,-5.66,-12.5
7230,-19.81,-4.37,-56,9.01,-5.83,-12.02
7240,-14.75,-12,-81,9.08,-5.36,-11.52
7250,7,-16.81,-106.81,8.62,-4.48,-11.36
7260,39.5,-16.75,-125.06,8.18,-3.11,-11.54
7270,67.69,-17.25,-139.75,8.06,-2.6,-11.92
7280,83.25,-18.87,-154.31,7.75,-1.9,-12.28
7290,89.37,-19.25,-166.94,7.27,-0.4,-12.44
7300,90,-21.44,-178.56,7.2,0.45,-12.48
7310,89.12,-25.31,-191.25,6.72,1.57,-12.6
7320,90.81,-28,-200.56,6.62,2.83,-12.78
7330,91.94,-31.44,-205.87,6.21,5.49,-13.27
7340,90.37,-36.38,-207.19,5.76,6.77,-13.8
7350,82.69,-41,-200.56,5.54,7.85,-14.22
7360,82.69,-41,-200.56,5.28,9.5,-15.26
7370,55.06,-41.81,-178.5,5.28,10.13,-15.63
7380,38.75,-37.88,-174.37,4.87,11.28,-15.76
7390,28.19,-32.75,-168.62,3.91,14.06,-15.35
7400,27.5,-24.56,-149,3.56,14.94,-15.14
7410,32.88,-18.44,-116.94,3.42,15.26,-15.21
7420,32.88,-13.13,-77.12,3.49,14.9,-15.49
7430,16.69,-7.81,-38.63,4.09,12.38,-16.1
7440,-18.12,-1.56,-8.94,4.41,10.75,-15.91
7450,-61.94,6.87,11.13,4.55,9.25,-15.15
7460,-61.94,6.87,11.13,4.89,7.18,-11.9
7470,-105.31,31.44,15.5,4.8,7.01,-9.81
7480,-84.06,40.19,3.12,4.4,7.37,-7.87
7490,-43.38,39.31,-5.87,4.05,7.62,-6.64
7500,-2,33,-9.13,3.66,7.62,-6.22
7510,-2,33,-9.13,3.36,7.29,-6.53
7520,25.87,24.25,-5.75,3.26,6.72,-6.71
7530,15.25,-36.31,20.87,3.11,5.2,-6.24
7540,-10.75,-92.19,33.63,3.36,4.26,-6.45
7550,-34.13,-136.62,34.31,3.5,3.31,-6.79
7560,-34.13,-136.62,34.31,3.18,2.98,-6.63
7570,-39.38,-170.12,23.06,2.83,3.64,-7.63
7580,27.62,-202.31,-3.19,1.88,4.05,-8.12
7590,63.56,-219.5,1.06,1.22,4.12,-9.17
7600,81.06,-240.19,15.69,0.71,2.53,-12.57
7610,81.06,-240.19,15.69,0.71,2.53,-12.57
7620,65.62,-261.37,30.94,0.8,-0.2,-14.25
7630,-32.63,-298.87,12.94,0.6,0.15,-13.28
7640,-63.31,-310.5,-17.87,-0.67,0.89,-12.34
7650,-53.94,-308,-49.81,-2.18,1.92,-12.45
7660,-53.94,-308,-49.81,-3.82,2.99,-12.67
7670,-16.56,-321.31,-73.87,-7.14,4.8,-15.13
7680,79.5,-368.5,-78,-8.57,4.72,-17.23
7690,105.19,-384.06,-62.69,-9.18,4.05,-19.63
7700,105.31,-379.31,-53.31,-9.89,2.76,-23.2
7710,105.31,-379.31,-53.31,-9.89,2.76,-23.2
7720,83.5,-352.62,-54.38,-10.25,2.5,-23.25
7730,21.5,-306.87,-62.81,-11.14,2.03,-21.6
7740,2.31,-303.62,-71.94,-10.74,2.81,-20.22
7750,-0.37,-309.44,-80.44,-12.25,2.7,-20.15
7760,-0.37,-309.44,-80.44,-12.25,2.7,-20.15
7770,5.56,-318.06,-92.37,-14.41,3.1,-23.67
7780,-4.37,-348,-97.06,-15.07,2.86,-26.15
7790,-39.69,-358.12,-108.19,-15.33,2.91,-28.67
7800,-73.94,-330.56,-127.87,-15.96,3.45,-30.37
7810,-73.94,-330.56,-127.87,-15.96,3.45,-30.37
7820,-79.06,-259.31,-149.44,-17.89,6.71,-29.4
7830,47.56,-89.69,-139.56,-19.97,8.65,-27.09
7840,100.94,-40.44,-111.69,-21.08,7.6,-29.4
7850,87.12,-16.37,-84.56,-20.68,7.68,-31.4
7860,87.12,-16.37,-84.56,-20.68,7.68,-31.4
7870,18.5,6.12,-56.88,-20.35,7.53,-31.86
7880,-62.63,97.62,-3.12,-19.11,6.75,-28.08
7890,-44.75,164,20.56,-18.55,5.86,-26.53
7900,-14.75,228.25,37.38,-18.03,4.89,-24.92
7910,-14.75,228.25,37.38,-18.03,4.89,-24.92
7920,9.06,282.87,45.75,-16.8,2.83,-21.4
7930,18.31,324.62,45.31,-15.87,2.36,-17.08
7940,30.25,345.12,47.81,-13.53,1.15,-15.04
7950,44.81,352.81,52.13,-12.75,0.45,-14.63
7960,39.75,348.94,53.88,-12.75,0.45,-14.63
7970,6.81,332.62,47.44,-11.69,0.38,-14.06
7980,-35.13,307.37,39.25,-9.65,0.83,-11.78
7990,-64.44,283.94,32.75,-8.9,1.01,-11.59
8000,-72.87,263,28.75,-8.13,0.94,-11.57
8010,-67,247.62,27.62,-8.13,0.94,-11.57
8020,-57.69,238.75,26.44,-6.97,0.47,-11.07
8030,-46.56,234,21.75,-5.64,0.83,-9.75
8040,-29.37,236,8.63,-5.16,1.56,-8.62
8050,-0.37,239.62,-8.38,-4.54,2.89,-6.77
8060,37.88,234.25,-19.19,-4.54,2.89,-6.77
8070,72.37,206.94,-17.69,-3.83,2.84,-7
8080,85.75,163.12,-10.13,-0.81,0.65,-11.25
8090,71.19,108,-3.75,0.98,0.9,-12.97
8100,27.06,53.81,-12,-1.07,1.06,-13.06
8110,-22.37,25.81,-32.69,-1.07,1.06,-13.06
8120,-26,22.75,-70.19,-3.08,6.05,-8.94
8130,46.56,29,-102.37,-3.95,9.24,-9.55
8140,161.37,55.13,-123,-4.45,8.97,-11.2
8150,261.31,70.06,-101.37,-4.3,7.01,-17.39
8160,293.62,62.13,-62.63,-4.3,7.01,-17.39
8170,229.81,37.38,-19.06,-4,6.42,-19.81
8180,103.81,21.31,25.06,-4.4,7.15,-17.78
8190,-20.44,22.69,61.63,-4.44,6.82,-15.95
8200,-93.94,29.12,103.69,-4.12,5.67,-14.83
8210,-109.56,34.81,149.06,-4.12,5.67,-14.83
8220,-98.56,29.87,182.75,-3.17,4.54,-14.26
8230,-87.62,15.88,197,-1.75,2.5,-13.99
8240,-76,-0.81,197.69,-1.73,2.32,-13.93
8250,-57.19,-16.87,198.44,-1.63,1.44,-13.94
8260,-32.38,-30.06,201.69,-1.63,1.44,-13.94
8270,-3.44,-43,201.87,-1.72,1.21,-14.37
8280,20.31,-60.69,205.94,-2.23,-0.32,-18.66
8290,31.12,-81.5,211.19,-2.11,-1.1,-19.85
8300,23.25,-94.19,217.37,-2.23,-1.76,-20.63
8310,-2.87,-96,221.81,-2.23,-1.76,-20.63
8320,-39.44,-92.62,223,-2.36,-2.22,-21.07
8330,-77.5,-88.25,222.44,-2,-3.05,-20.18
8340,-100.62,-78.19,216.87,-2.12,-2.84,-18.82
8350,-100.31,-59.13,205.62,-2.46,-2.69,-16.55
8360,-78.81,-43.81,191.87,-2.46,-2.69,-16.55
8370,-50.31,-46.19,182.56,-2.76,-2.94,-16.81
8380,-37.75,-67.69,181.31,-2.26,-3.42,-19.84
8390,-52.19,-101.19,176.94,-2.53,-2.98,-21.95
8400,-75.69,-127.62,162.5,-2.99,-2.54,-22.37
8410,-85.12,-126.62,143.44,-2.99,-2.54,-22.37
8420,-76.5,-103.69,130.56,-3.07,-2.5,-22.87
8430,-66.5,-73.87,122.25,-2.56,-3.06,-24.3
8440,-68.25,-44.25,106.12,-2.56,-3.06,-24.3
8450,-78.69,-21.75,81.19,-2.64,-2.33,-24.14
8460,-79.19,-5.62,57.69,-2.62,-1.49,-23.91
8470,-55.75,12.06,39.44,-2.59,0.02,-24.26
8480,-13.69,40.69,26.37,-2.35,0.46,-24.66
8490,31.5,81.56,16.94,-2.22,0.7,-25.05
8500,62.25,121.87,6.56,-1.91,1.65,-24.55
8510,75.19,150.37,-5.56,-2.19,2.61,-24.12
8520,81.94,171.19,-8.94,-2.27,3.28,-24.36
8530,74.69,188.44,1.75,-2.02,3.43,-25.03
8540,44.88,204.06,18.44,-1.52,3.13,-26.02
8550,5.69,226.87,35.19,-1.21,2.79,-26.29
8560,-30.5,258.25,50.69,-0.72,2.39,-25.76
8570,-49.5,301.44,57.75,0.14,2.56,-21.29
8580,-40.63,344.25,58.31,0.59,2.85,-19.32
8590,-22,376,61.13,1.53,2.7,-17.42
8600,-12,395.06,65.56,3.4,1.9,-13.74
8610,-17.44,391.25,69.5,4.44,1.58,-12.24
8620,-29.44,364.75,63.75,5.98,1.64,-10.83
8630,-33.56,332.12,54.63,7.04,1.74,-9.78
8640,-25,303.44,45.25,8.42,1.94,-8.24
8650,-9,271.5,36.44,9.13,2.01,-7.64
8660,11.5,244.56,28.94,9.76,2,-7.22
8670,31.12,222.87,24.62,10.4,1.66,-6.63
8680,45.94,197.19,19.81,10.97,1.45,-6.59
8690,53.38,171.56,12.56,11.23,1.29,-6.61
8700,50.81,150.12,5.44,11.43,1.22,-6.56
8710,38.69,129.87,-0.37,11.5,1.17,-5.88
8720,23.62,110.19,-5.25,11.67,1.15,-5.2
8730,11.88,91.81,-7.87,11.74,0.94,-4.51
8740,4.31,70.44,-9.13,11.67,0.12,-4.22
8750,-2.37,44.94,-12.88,11.61,-0.14,-4.16
8760,-11.5,0.37,-18.25,11.04,-0.42,-4.3
8770,-23.37,-51.56,-22.44,11.19,-1.42,-4.71
8780,-34.5,-97.81,-28.75,10.82,-1.87,-5.47
8790,-42.19,-138.94,-37.56,10.62,-2.42,-6.59
8800,-45.13,-185.37,-49.5,10.07,-2.59,-8.13
8810,-32.69,-243.12,-60,9.06,-2.32,-12.87
8820,0.37,-263.5,-71.87,8.08,-3,-16.5
8830,32.69,-226.12,-88.75,7.85,-3.81,-19.15
8840,44.75,-185.81,-107.25,7.8,-4.62,-23.34
8850,37.19,-143.5,-132.94,7.8,-4.11,-24.36
8860,25.06,-81.12,-174.12,6.79,-1.57,-23.06
8870,42,-6.62,-211.06,5.4,1.75,-19.8
8880,100.56,41.38,-215.25,4.46,5.28,-16.01
8890,170.25,60.69,-198,4.61,5.47,-15.71
8900,210.31,58.75,-172.19,5.04,5.06,-16.06
8910,205.44,47.25,-151.75,6.02,4.45,-16.88
8920,164.37,38.69,-142.62,6.14,4.5,-16.39
8930,109.12,32.13,-140.81,6.08,4.9,-15.19
8940,68.69,23.44,-142.19,5.96,5.51,-13.94
8950,57.81,15.38,-142.12,5.7,6.43,-12.59
8960,64.44,9.5,-139.69,5.51,6.76,-12.33
8970,72,3.19,-135.81,5.08,7.04,-12.21
8980,71.87,-7.5,-125.12,4.91,6.85,-11.42
8990,69.12,-23.75,-114.31,4.83,6.59,-11.09
9000,71.44,-41.5,-106.19,4.75,6.19,-10.96
9010,77.94,-58.88,-101,4.95,5.03,-12.32
9020,81.62,-72.12,-103.56,4.92,4.73,-13.1
9030,78.12,-77.56,-113.19,4.77,5.01,-13.17
9040,80.12,-77.37,-128.5,4.15,6.04,-12.73
9050,99.75,-74.69,-138.19,2.84,8.3,-12.28
9060,127.12,-73.75,-131.87,2.47,8.77,-12.48
9070,146.19,-76.06,-117.5,1.97,9.3,-12.67
9080,152.69,-79.94,-96.12,1.17,9.79,-13.79
9090,139,-83.69,-63,0.97,9.17,-14.34
9100,101.31,-88.19,-27.06,1.08,8.37,-14.75
9110,44.19,-93.62,2.5,1.05,7.77,-14.72
9120,-15.56,-98.06,27.12,1.05,6.65,-13.28
9130,-58.63,-98.5,49,1.04,5.92,-12.18
9140,-79.44,-99.94,66.12,1.19,5,-11.41
9150,-85.87,-104.31,77.94,1.83,2.85,-10.4
9160,-87.62,-109.25,79.69,1.99,2.33,-9.52
9170,-85.44,-117.69,70.25,1.51,2.17,-8.41
9180,-71.37,-132.12,54.69,0.78,2.36,-7.49
9190,-46.44,-156,40.69,-0.81,2.86,-6.55
9200,-16.94,-190.31,32.94,-1.85,3.1,-6.75
9210,10.5,-230.25,37.06,-2.76,2.84,-7.47
9220,31.06,-269.37,46.13,-3.79,0.96,-10.35
9230,43.88,-298.06,51.94,-4.59,-0.27,-11.43
9240,53.38,-316.25,46.06,-5.53,-1.13,-12.2
9250,63.81,-334.12,30.69,-6.58,-3.4,-14.74
9260,63.13,-352.12,7.25,-8.25,-3.48,-14.65
9270,67.06,-371,-27.56,-9.59,-2.59,-14.81
9280,98.56,-398.81,-53.19,-10.95,-2.28,-16.44
9290,142.62,-426.31,-59.38,-13.18,-3.18,-22.33
9300,185.62,-441.69,-62.75,-13.81,-3.75,-25.52
9310,217.56,-418.31,-66.19,-14.31,-3.98,-28.06
9320,233.37,-355.06,-65.62,-14.07,-4.21,-30.61
9330,224.19,-273.44,-61.13,-14.07,-4.04,-29.58
9340,186.69,-198.87,-55.5,-14.14,-3.6,-27.47
9350,127.62,-158.12,-42.13,-14.22,-3.16,-25.18
9360,61.38,-155.19,-22.81,-14.81,-3.59,-24.48
9370,-4.06,-174.44,-5.87,-14.9,-4.26,-25.48
9380,-55.69,-185.44,5,-14.91,-4.86,-26.22
9390,-80.06,-182.44,3.12,-15.24,-5.03,-26.83
9400,-70.75,-171.25,-8.56,-15.5,-4.71,-27.32
9410,-40.19,-159.19,-24.19,-15.82,-4.43,-28.59
9420,-12.13,-136.81,-35.81,-16,-4.26,-30.33
9430,-3.56,-92.37,-41.69,-16.18,-3.66,-32.44
9440,-16.37,-28.5,-42.69,-16.3,-3.02,-31.87
9450,-38.63,45.38,-36.5,-16.36,-2.32,-30.31
9460,-57.69,116.69,-23.81,-16.16,-1.6,-25.4
9470,-72.12,171.56,-8.31,-15.5,-1.62,-23.51
9480,-90.5,207.19,5.12,-14.78,-1.67,-22.05
9490,-115.12,233.62,17.25,-13.74,-1.78,-18.51
9500,-138.44,249.81,28.06,-13.04,-1.71,-16.89
9510,-149.69,260.19,34.75,-12.36,-1.57,-15.41
9520,-141.62,265.19,37.44,-11.63,-1.45,-14.38
9530,-121.06,266.5,37.38,-10.27,-1.77,-12.77
9540,-99.06,265,32.81,-9.56,-1.75,-12.26
9550,-78.87,258.69,22.25,-8.93,-1.5,-11.82
9560,-58.94,251.25,11.38,-8.05,-1.06,-10.75
9570,-41.38,242.87,1.56,-7.56,-0.75,-10.35
9580,-29.06,228.31,-8.19,-6.99,-0.34,-9.98
9590,-18.44,209.31,-17.69,-6.56,0.2,-9.72
9600,-8.31,189.69,-22.94,-5.81,1.03,-9.06
9610,-0.75,169.62,-24.44,-5.24,1.3,-8.94
9620,4.06,148.56,-26.31,-4.93,1.69,-8.84
9630,7.25,127.31,-28.37,-4.54,2.48,-7.92
9640,13.06,106.31,-30.87,-4.54,3.03,-7.61
9650,23.69,80.44,-31.56,-4.68,3.42,-7.64
9660,31.81,48.56,-26.75,-4.62,3.63,-7.84
9670,31.31,14.13,-23.12,-4.98,4.64,-9.33
9680,19.56,-24.31,-18.31,-5.33,5.08,-10.72
9690,-4,-57.63,-8.25,-5.5,5.41,-11.98
9700,-27.37,-81.87,-1.31,-6.39,7.03,-13.99
9710,-36,-93.25,3.44,-6.86,8,-14.84
9720,-28.06,-86.62,9.88,-7.56,8.99,-15.34
9730,-11.88,-74.25,21.37,-8.67,10.48,-16.56
9740,6.56,-59.44,43.44,-9.17,10.86,-16.85
9750,25.06,-38.25,70.81,-9.67,11.14,-16.85
9760,43.5,-19.12,101.56,-9.91,11.25,-16.88
9770,60.88,-4.37,136.44,-10.13,10.22,-18
9780,68.62,10.56,174.37,-9.87,9.1,-18.71
9790,55.56,25.37,209.19,-9.7,8.06,-18.96
9800,25.62,38.88,240.5,-9.23,4.8,-18.5
9810,-12.06,51.19,270.06,-8.69,3.2,-17.97
9820,-54.56,57.13,289.37,-8.22,2.11,-17.28
9830,-92,57.06,299.5,-7.91,1.3,-16.35
9840,-117.5,50.75,309.5,-6.93,-1.44,-15.3
9850,-137.94,35.88,317.69,-6.03,-2.78,-15.31
9860,-159.87,13.88,320.06,-5.05,-4.21,-15.46
9870,-182.69,-12.31,312.94,-3.16,-7.15,-16.18
9880,-196.87,-38.63,292.87,-2.22,-8.1,-16.5
9890,-193.5,-56.44,258.94,-1.38,-8.68,-16.54
9900,-165.69,-63.13,208.06,-0.62,-8.79,-16.26
9910,-108.81,-60.88,143.44,-0.56,-7.72,-15.77
9920,-32.19,-58.06,76.87,-0.53,-6.54,-16.1
9930,43.31,-58.88,16.62,-1.41,-4.91,-16.76
9940,104.44,-60.94,-29.62,-2.66,-1.71,-18.98
9950,141.06,-63.81,-53.81,-3.33,-0.91,-20.46
9960,144.62,-67.19,-61.63,-3.79,-0.33,-22.07
9970,114.12,-69,-60.5,-3.93,0.46,-24.69
9980,57.38,-65.25,-57.44,-3.97,0.92,-25.15
9990,-3.75,-55.44,-57.75,-3.89,1.64,-24.92
10000,-43.75,-37.69,-62.69,-4.01,2.72,-24.11
