timestamp,gyrox,gyroy,gyroz,accx,accy,accz
10,0.25,0.06,0.13,0,0,0
20,0.06,-0.06,0.06,0,0,0
30,0.13,-0.06,-0.06,0,0,0
40,-0.13,-0.37,0.06,0.24,-6.48,-17.09
50,0.06,-0.13,0,0.31,-6.4,-16.95
60,0,-0.19,-0.13,0.28,-6.4,-16.96
70,0,-0.19,0,0.25,-6.45,-17.08
80,55,-23.12,12.19,-0.75,0.87,0.85
90,55,-23.12,12.19,-0.43,0.37,0.1
100,56.75,-31.44,19.19,-0.09,-0.04,-0.7
110,38.69,-31.87,13.13,-0.13,0.02,-0.88
120,36.69,-20.19,8.19,-0.11,0.1,-0.46
130,44.25,-11.19,5.81,-0.04,0.17,-0.26
140,44.25,-11.19,5.81,-0.04,0.17,-0.26
150,49.06,-9.56,4.25,0,0.3,-0.59
160,26.44,-13,4.87,0.16,0.32,-0.91
170,11.13,-14.31,5.5,0.26,0.33,-0.61
180,11.31,-14.63,8.25,0.56,-0.09,-0.33
190,11.31,-14.63,8.25,0.56,-0.09,-0.33
200,25.62,-13.88,9.06,0.68,-0.13,-0.72
210,44.75,-8.75,7.62,1.05,-0.14,-2.02
220,37.81,-4.06,5.69,1.03,0.16,-2.08
230,24.75,-0.94,5.87,1.31,0.21,-2.29
240,24.75,-0.94,5.87,1.31,0.21,-2.29
250,8.13,0.19,7.25,1.64,0.22,-2.47
260,-16.94,3.06,13.25,1.88,-0.31,-3.36
270,-22.19,9.13,19.69,2.2,-1.07,-4.07
280,-28.31,22,19.87,2.87,-2.2,-4.57
290,-28.31,22,19.87,2.87,-2.2,-4.57
300,-32.19,39.63,13.06,3.22,-2.48,-4.56
310,-36,67.5,-9.5,3.25,-2.42,-4.55
320,-37.94,79.37,-17.5,3.1,-2.33,-4.9
330,-41.31,92.12,-23.62,2.82,-2.43,-4.94
340,-41.31,92.12,-23.62,2.82,-2.43,-4.94
350,-43.56,106.62,-29.06,2.47,-2.68,-4.96
360,-54.5,141.31,-54.56,1.58,-3.58,-3.89
370,-65.12,156.81,-76.75,0.87,-3.13,-2.99
380,-73.25,166.12,-95.62,-0.54,-1.34,-0.72
390,-73.25,166.12,-95.62,-0.54,-1.34,-0.72
400,-78.37,167.25,-109.06,-1.35,-0.28,0.25
410,-65.5,159.94,-102.62,-2.8,0.94,0.69
420,-65.5,159.94,-102.62,-3.79,1.93,1.65
430,-68.87,157.06,-91.06,-4.38,2.27,2.15
440,-76.06,156,-79.94,-4.38,2.27,2.15
450,-80,156.31,-66.69,-5.61,2.22,2.31
460,-87.81,165.75,-56,-7.51,2.15,5.06
470,-105,170.5,-44.31,-8.13,1.73,5.77
480,-112.12,180.37,-30.69,-8.5,1.66,6.76
490,-97.31,200.06,-25.81,-8.5,1.66,6.76
500,-70.56,167.5,-23.56,-9,1.29,10.28
510,-59.31,118.62,-33.06,-11.41,2.14,12.64
520,-67.87,61.38,-39.25,-13.07,3.36,13.8
530,-73.12,-4.62,-32.19,-13.42,3.52,12.48
540,-46.94,-75.19,-13.63,-13.42,3.52,12.48
550,-1.19,-137,7.62,-13.38,3.15,10.09
560,11.56,-182.62,26.75,-12.53,1.62,5.6
570,-3,-210.81,35.38,-12.42,1.52,5.47
580,-21.5,-228.25,34.44,-12.34,1.42,5.42
590,-30.75,-239.37,31,-12.34,1.42,5.42
600,-34.5,-248.37,26.87,-12.1,1.29,4.86
610,-41.19,-264.5,25.5,-10.95,1.02,4.59
620,-48.5,-288.75,27.19,-10.47,0.86,4.16
630,-50.94,-317.87,31.56,-8.88,-0.27,2.9
640,-48.56,-346.62,39.44,-8.88,-0.27,2.9
650,-43.25,-388.5,44.75,-7.69,-1.09,2.57
660,-38.81,-442.31,42.38,-5.42,-2.08,-2.21
670,-35.5,-489,35.94,-3.87,-2.07,-5.14
680,-7,-483.5,27.62,-2.93,-2.38,-8.93
690,31.31,-483.56,20.12,-2.93,-2.38,-8.93
700,29.06,-467.12,14.5,-0.53,-1.73,-14.62
710,9.38,-437.62,9.06,1.69,-0.84,-19.01
720,20.25,-402.69,12.56,2.99,-1.21,-21.97
730,57.19,-355.25,24.87,5.14,-3,-25.09
740,113.31,-294.5,31.75,5.14,-3,-25.09
750,182.44,-227.5,28.56,5.7,-4.54,-26.43
760,180.37,-162.06,21.19,6.76,-4.57,-26.46
770,86.5,-99.87,9.06,6.5,-3.58,-24.68
780,-39.81,-41.75,-3.06,6.11,-2.85,-23.11
790,-37.31,14.06,-9,6.11,-2.85,-23.11
800,-4.5,72.31,-6.81,5.54,-2.5,-22.14
810,12.25,128.31,-1.87,3.5,-2.47,-14.7
820,15,174.5,1.5,2.56,-2.47,-12.32
830,25.19,206.37,0.56,1.32,-2.58,-9.92
840,40.38,221.19,-3.37,1.32,-2.58,-9.92
850,46.63,222.25,-9.06,0.64,-2.42,-9.34
860,44.44,221.75,-15.81,-0.79,-1.92,-8.19
870,45,227.56,-22,-2.43,-1.24,-6.69
880,47.56,239.44,-26.31,-2.84,-1,-5.65
890,43,249.75,-26.75,-2.84,-1,-5.65
900,42.81,260.44,-29.87,-3.42,-0.99,-5.11
910,53.44,279.31,-33.63,-5.37,-1.26,-2.4
920,63.31,302.12,-38.31,-6.17,-1.34,-1.35
930,71.75,320.62,-45.38,-6.8,-1.19,1.33
940,73.5,332.87,-55.06,-6.8,-1.19,1.33
950,70.12,337.12,-69.31,-7.28,-0.88,2.23
960,63.94,334.69,-86.62,-8.35,0.3,3.39
970,50.75,328.25,-103.5,-9.63,2.08,4.88
980,29.37,316.62,-115.69,-9.91,2.87,5.47
990,7,307.44,-120.06,-9.91,2.87,5.47
1000,-8.38,307.69,-118.94,-10.25,3.57,5.94
1010,-13.13,308.75,-112.94,-10.71,4.67,7.73
1020,-18.12,305,-103.94,-10.42,4.67,8.57
1030,-22.31,266.69,-88.44,-10.42,4.67,8.57
1040,-25.12,225.31,-77.37,-10.46,4.79,9.83
1050,-25.81,172.25,-65.12,-10.3,5.08,11.01
1060,-22.75,113.37,-47.5,-10,4.94,10.62
1070,-18.44,59.69,-30.81,-9.81,4.77,9.9
1080,-16.19,16.19,-16.19,-9.46,4.38,7.9
1090,-16.75,-13.25,-3.62,-9.3,4.13,7.07
1100,-19.87,-29.56,6.56,-9.04,3.8,6.63
1110,-23.81,-38.25,13.69,-8.71,3.56,6.58
1120,-24.87,-45.88,18.75,-8.46,3.43,6.68
1130,-25.87,-57.5,24.56,-8.48,3.38,6.79
1140,-30.81,-75.25,34.44,-8.33,3.05,6.88
1150,-37.5,-97.81,45.5,-7.93,2.01,7.19
1160,-39,-122.69,54.63,-7.56,1.29,7.21
1170,-35.44,-150.12,57.69,-7.81,0.96,6.84
1180,-30.25,-175.87,60.06,-7.32,-0.05,5.18
1190,-30.5,-202.25,61,-6.97,-0.5,4.47
1200,-37.63,-226.12,59.38,-6.46,-0.79,4.03
1210,-40.31,-248.06,55.19,-6.06,-1.14,3.44
1220,-35.25,-271.75,46.56,-5.64,-1.21,2.64
1230,-24.5,-295.5,37.25,-5.59,-0.92,2.26
1240,-15.38,-310.5,31,-5.34,-0.57,1.83
1250,-12.69,-319.75,28.81,-4.58,-0.1,0.14
1260,-13.38,-309.81,29.31,-4.49,-0.08,-0.62
1270,-8.94,-288.5,32.25,-3.89,-0.38,-1.42
1280,-14.19,-269.69,34.81,-3.14,-0.84,-1.71
1290,-32.44,-262.06,31.37,-1.82,-0.77,-0.59
1300,-37.31,-269.44,24.87,-1.3,-0.23,-0.35
1310,-17.25,-290.5,23.5,-0.91,-0.02,-1.51
1320,2.87,-312.56,28.06,-0.05,0.43,-5.23
1330,13.69,-328.25,37.25,0.34,0.49,-7.18
1340,24.56,-334.25,55.38,1.05,-0.01,-9.65
1350,27.56,-331.44,74.06,2.06,-0.9,-12.2
1360,19.5,-319.56,83.44,3.08,-2.6,-17.09
1370,10.5,-293.06,81.69,3.68,-3.1,-19.08
1380,8.81,-251.94,71.75,3.83,-3.4,-21
1390,8.81,-207.12,61.63,3.54,-3.82,-24.61
1400,2.81,-157.81,56.69,3.54,-4.21,-25.64
1410,-1.75,-98.69,55.75,3.52,-4.82,-26.09
1420,3.62,-27.12,54.19,3.6,-6.46,-25.3
1430,13.44,50.81,45.94,3.31,-7.01,-23.78
1440,16.44,126.31,30.81,2.96,-7.2,-20.93
1450,15.81,189.56,10.44,2.3,-6.88,-17.13
1460,27.19,232.56,-12.31,0.95,-5.58,-11.16
1470,46.13,257.75,-34.44,0.14,-4.72,-9.35
1480,59.06,266.31,-55.38,-0.96,-3.72,-8.16
1490,60.06,267.06,-71.31,-2.49,-1.35,-6.18
1500,53.5,264.06,-78.94,-3.29,-0.42,-5.33
1510,49.25,260.94,-76.81,-4.04,0.1,-4.73
1520,50.69,261,-70.12,-4.58,0.12,-4.44
1530,55.5,268.69,-65.06,-5.02,-0.32,-3.39
1540,63.63,281.5,-66,-5.6,-0.48,-3.03
1550,71.69,299.69,-72.06,-6.15,-0.65,-2.47
1560,74.25,320.44,-83.75,-6.9,-0.29,0.01
1570,73.12,337.94,-100.37,-7.63,0.21,1.1
1580,69.31,348.44,-117.06,-8.28,0.74,1.83
1590,58.63,352.5,-130.75,-8.9,1.35,2.42
1600,40.31,351.75,-139.37,-9.47,3.17,4.75
1610,25.75,345.5,-140.81,-10.02,3.92,5.55
1620,21.06,339.19,-132.31,-10.21,4.43,5.83
1630,21.75,345.25,-120.5,-10.41,4.74,5.92
1640,15.63,343.62,-108.31,-10.38,5.02,7.07
1650,1.94,303.56,-93.31,-10.05,5.1,8
1660,-15.06,256.75,-83.94,-10.52,5.34,9.37
1670,-27.31,203.94,-70.62,-10.31,5.86,11.68
1680,-26.94,144.25,-51.38,-10.05,5.81,11.76
1690,-18.12,83,-29.56,-9.86,5.59,11.1
1700,-11.5,30.31,-9.75,-9.38,4.85,8.63
1710,-9.56,-5.69,6,-9.1,4.42,7.49
1720,-13.38,-24.31,17,-8.8,4.02,6.71
1730,-23.69,-34.25,23.19,-8.54,3.8,6.68
1740,-36.5,-43.13,27.31,-8.6,3.97,7.21
1750,-42.44,-55.63,35.69,-8.65,3.98,7.67
1760,-40.88,-74.69,50.13,-8.55,3.68,7.89
1770,-37.19,-99.69,67.06,-8.12,1.97,7.03
1780,-38.38,-127.12,80.19,-7.71,0.98,6.68
1790,-44.75,-154.5,84.06,-7.31,0.16,6.44
1800,-49.88,-178,78,-6.95,-0.7,5.6
1810,-50.94,-199.25,65.44,-6.78,-0.72,5.11
1820,-51.38,-220.37,52.13,-6.5,-0.67,4.33
1830,-59.06,-243.69,40.13,-6.32,-0.74,3.42
1840,-72.87,-264.87,27.44,-6.37,-0.07,2.69
1850,-71.56,-282.19,19.56,-5.92,0.45,3.1
1860,-49.94,-303.69,23.12,-5.96,0.71,2.77
1870,-30.69,-328.62,37.19,-5.81,0.01,0.73
1880,-30.25,-348.5,53.31,-4.92,-0.61,-0.33
1890,-32.75,-333.25,60.38,-4.37,-1.36,-1.09
1900,-23.69,-312,56.25,-3.26,-2.04,-1.9
1910,-18.37,-290.69,39.63,-2.03,-2.11,-3.22
1920,-26.12,-273.94,15.88,-1.84,-1.06,-2.82
1930,-30.87,-269.25,0.37,-1.6,0.17,-2.52
1940,-23.81,-281.81,2.19,-1.06,1.52,-4.19
1950,-11.19,-301.81,15.88,-0.3,1.8,-5.52
1960,4.62,-323,36.13,0.36,1.72,-7.5
1970,23.19,-339.75,63,1.06,-0.11,-13.57
1980,33.75,-341.25,91.25,1.9,-1.77,-16.89
1990,24.31,-327,110.19,3.07,-3.45,-19.83
2000,-0.13,-292.44,109.94,3.84,-4.88,-21.99
2010,-19.31,-243.75,94,4.01,-6.38,-25.11
2020,-22,-184.94,75.25,4.36,-7.05,-26.56
2030,-18.69,-117,54.69,4.49,-7.49,-27.51
2040,-13.5,-33.88,32,4.24,-7.48,-26.41
2050,-2.81,60.19,10.38,3.78,-7.17,-23.98
2060,6.81,149.69,-8.44,3.01,-6.59,-20.49
2070,10.44,217.44,-25.19,2.07,-5.79,-16.56
2080,17.06,258.56,-39.56,0.63,-4.4,-10.17
2090,30.12,275.87,-52.88,-0.04,-3.71,-8.31
2100,40.38,270.37,-64.12,-0.69,-3,-7.28
2110,42.88,256.56,-71.44,-1.63,-1.98,-6.41
2120,38.63,247.19,-75.25,-2.32,-1.82,-6.26
2130,29.56,248.25,-77.31,-3.01,-1.81,-5.96
2140,20.37,257,-81.12,-3.46,-1.71,-5.37
2150,22,271.69,-87.94,-4.46,-0.95,-3.77
2160,35.88,292.37,-95.25,-5.29,-0.59,-3.02
2170,49.5,312.81,-101,-6.19,-0.26,-2.43
2180,50.38,326.81,-103.25,-7.11,0.13,-0.52
2190,36.63,337.5,-103.81,-7.4,0.4,1.02
2200,22.25,341.31,-106.75,-7.84,0.79,2.43
2210,19.94,337.12,-110.44,-8.11,1.19,3.54
2220,23.44,325.19,-114.12,-8.34,2.12,5.06
2230,24.87,310.06,-117.31,-8.64,2.6,5.42
2240,22.94,297.19,-119.19,-9.13,3.3,5.68
2250,19.5,291.94,-112.44,-9.18,4.17,5.93
2260,13.06,292.44,-101.19,-9.36,4.26,5.86
2270,3.31,292.94,-88.31,-9.76,4.4,6.11
2280,-3.25,276.06,-68.25,-9.21,4.1,8.61
2290,-5.19,233.75,-53.63,-9.19,3.92,9.52
2300,-12.75,194,-45.38,-9.1,3.97,10.31
2310,-20.87,141.44,-37.44,-9.15,4.17,11.02
2320,-17.44,85.44,-26.06,-9.13,4.63,10.86
2330,-4.56,33.31,-10,-9.11,4.5,9.79
2340,3.44,-8.75,7.56,-8.97,4.24,8.59
2350,3.25,-35.56,23.19,-8.85,3.61,7.07
2360,-0.81,-50.5,38.25,-8.51,3.07,6.74
2370,-9.44,-62.56,50.38,-8.17,2.48,6.65
2380,-21.37,-77.12,56.75,-7.92,2.01,6.8
2390,-30.5,-95.87,59.31,-7.74,1.28,6.87
2400,-33.81,-116.81,60.5,-7.61,0.99,6.81
2410,-35.63,-139.25,60.44,-7.52,0.7,6.71
2420,-38.13,-164.25,58,-7.27,0.6,6.04
2430,-37.81,-192.69,56.56,-7.17,0.67,5.44
2440,-32.63,-219.44,61,-6.81,0.49,4.67
2450,-26.06,-241.44,70.75,-6.24,-0.93,2.35
2460,-22.75,-257.81,80.44,-5.79,-1.87,1.98
2470,-25.81,-272.44,81.94,-5.35,-2.59,1.93
2480,-30.69,-272.94,67.37,-5.24,-2.85,2.21
2490,-28.19,-264.25,40.44,-4.97,-1.34,2.9
2500,-12.13,-261.87,12.5,-5.18,0.44,2.92
2510,11.06,-278.5,2.69,-5.34,2.01,2.37
2520,23.25,-314.06,17.69,-6.11,3.19,-0.43
2530,18.56,-345.81,54.06,-5.49,2.25,-1.87
2540,11.75,-354.56,94.37,-4.45,0.81,-3.58
2550,1.44,-361.56,121,-3.46,-0.68,-5.45
2560,-22.62,-355.5,126.06,-0.78,-2.61,-7.37
2570,-42.38,-335.44,108.06,0.09,-2.25,-7.18
2580,-33.69,-306.31,82.19,0.05,-1.45,-7.49
2590,-10.31,-279.31,74,-0.26,-1.15,-10.17
2600,-7.44,-265,84.94,0.2,-1.95,-11.46
2610,-32.94,-270.62,100.56,0.77,-3,-12.49
2620,-56.25,-289.06,109.25,1.38,-4.18,-13.7
2630,-55.69,-308.25,106.94,1.95,-6.72,-18.84
2640,-38.44,-307.25,89.75,2.56,-7.44,-21.94
2650,-13,-277.44,56.94,2.63,-7.47,-25.09
2660,14.25,-216.06,22.81,2.14,-6.67,-29.85
2670,33.19,-121.25,-3,2.13,-6.04,-29.88
2680,39.75,1.94,-21.81,1.75,-5.24,-29.39
2690,39.69,134.31,-34.13,0.85,-4.4,-25.97
2700,30.94,241,-39,-0.57,-3.17,-16.1
2710,17.75,304.37,-41.06,-1.26,-2.84,-11.61
2720,17.5,329.94,-45.25,-1.66,-2.54,-8.06
2730,33.81,322.25,-53.63,-2,-1.91,-4.58
2740,54.88,296.75,-64.62,-2.47,-1.59,-4.44
2750,67,271.06,-75.87,-3.05,-1.06,-4.55
2760,69.62,256.12,-87.44,-3.9,0.4,-4.37
2770,73.19,255.44,-93.69,-4.61,0.84,-4.53
2780,76.37,266.81,-92.25,-5.3,1.03,-4.57
2790,73.06,285.12,-86.94,-5.85,0.89,-4.41
2800,66.12,312.19,-83.56,-6.67,0.53,-2.27
2810,62.38,343.44,-84.37,-7.16,0.44,-0.96
2820,59.94,367.75,-88.06,-7.55,0.21,0.3
2830,54.63,377.94,-96.19,-7.74,0.34,2.89
2840,47.81,378.12,-108.12,-8.09,0.63,3.68
2850,47.81,378.12,-108.12,-8.54,1.13,4.23
2860,39.38,368.87,-129.69,-9.08,1.63,4.73
2870,33.5,359.44,-132,-9.28,2.65,5.81
2880,25.44,358,-129.44,-9.68,2.93,5.86
2890,18.44,364.5,-123.12,-9.72,3.01,5.8
2900,9.69,350.75,-116,-9.2,3.24,8.07
2910,-4.25,294.44,-110.69,-9.54,3.38,9.02
2920,-27.19,250.5,-110,-9.34,3.75,10.09
2930,-44.44,196.19,-107.5,-9.45,4.29,11.02
2940,-44.06,140.12,-97.62,-9.22,5.15,11.37
2950,-29.62,87.87,-80.62,-9.14,5.3,10.64
2960,-14.25,44.63,-61.13,-9.17,5.33,9.63
2970,-8.44,12.19,-39.81,-8.77,4.62,7.72
2980,-17,-10.31,-19.56,-8.41,4,7.46
2990,-32.5,-24.94,-8.38,-8.21,3.76,7.79
3000,-32.5,-24.94,-8.38,-8.33,4.26,8.45
3010,-40.75,-39.5,-3.94,-8.48,4.38,8.3
3020,-22.25,-77.87,16.87,-8.59,4.37,8.06
3030,-17.12,-101.31,35.13,-8.7,4.11,7.76
3040,-20.06,-127.5,55.19,-8.34,2.58,7.27
3050,-20.06,-127.5,55.19,-7.99,1.47,6.83
3060,-26.94,-158,72.56,-7.66,0.37,6.23
3070,-35.94,-218.87,81.69,-7,-1.11,4.67
3080,-34.56,-240,72.94,-6.63,-1.5,4.03
3090,-32.69,-256,58.69,-6.31,-1.68,3.46
3100,-32.69,-256,58.69,-6.21,-1.4,3.04
3110,-31.19,-266.44,39.19,-6.5,-0.38,2.19
3120,-9.19,-279.56,16.44,-6.46,0.07,1.71
3130,-6.44,-289.75,18.12,-6.22,0.42,1.45
3140,-15.25,-311.75,28.69,-6.11,-0.09,0.74
3150,-15.25,-311.75,28.69,-6.11,-0.09,0.74
3160,-26.37,-346.94,44.88,-5.36,-0.91,0.38
3170,-14.25,-360.87,52.06,-3.83,-2.18,-2.18
3180,8.75,-352.62,41.19,-2.39,-2.25,-5.52
3190,21.12,-333.25,26.87,-1.58,-1.61,-6.33
3200,21.12,-333.25,26.87,-1.58,-1.61,-6.33
3210,27.25,-313.19,18.12,-0.24,-0.87,-9.82
3220,36.19,-283.94,37.69,0.57,-1.43,-11.21
3230,23.44,-278.25,54.69,1.28,-2.33,-12.53
3240,5.69,-272.5,65.37,2.82,-4.15,-15.15
3250,5.69,-272.5,65.37,2.82,-4.15,-15.15
3260,-5.75,-261,62.69,3.33,-4.54,-16.33
3270,5.62,-219.06,34.81,4.05,-4.8,-19.9
3280,15.88,-182.87,19.56,4.16,-4.28,-23.43
3290,22.62,-130.25,6.12,4.2,-3.84,-24.49
3300,22.62,-130.25,6.12,4.2,-3.84,-24.49
3310,23.62,-60.81,-1.69,4.05,-3.39,-24.64
3320,17.87,106.87,-0.19,2.9,-3.25,-17.87
3330,6.5,172.5,0.37,2.29,-3.25,-14.09
3340,0.88,214.31,-4.81,1.58,-3.14,-10.85
3350,0.88,214.31,-4.81,1.58,-3.14,-10.85
3360,4.81,231.87,-14,0.92,-2.49,-6.32
3370,16.44,206,-31.62,-0.19,-1.68,-4.87
3380,20.62,186.06,-35.69,-0.81,-1.05,-5.18
3390,27.12,176.06,-37.88,-1.41,-1,-5.79
3400,27.12,176.06,-37.88,-1.41,-1,-5.79
3410,33,180.62,-38.06,-1.95,-1.08,-6.35
3420,24.37,219.44,-44.81,-3.35,-0.8,-4.55
3430,25.69,241.62,-52.56,-4.01,-0.55,-3.79
3440,31.25,260.44,-60.25,-4.49,-0.19,-3.03
3450,31.25,260.44,-60.25,-4.49,-0.19,-3.03
3460,34.25,274,-65.56,-5.37,0.47,-1.33
3470,32.44,284.19,-67.19,-6.15,0.68,0.36
3480,25.81,288.81,-67.44,-6.57,1.19,2.22
3490,20.19,289.19,-71.19,-7.09,1.41,2.58
3500,19.06,288.75,-77.12,-7.09,1.41,2.58
3510,14.88,287.31,-80.75,-7.45,1.64,2.89
3520,3.06,286.87,-82.12,-8.34,2.39,5.36
3530,-11.25,287.31,-83.06,-8.6,2.79,6.13
3540,-20.06,288.25,-83.81,-8.86,3.1,6.53
3550,-18.06,297.81,-83.06,-8.86,3.1,6.53
3560,-5.06,318.19,-80.87,-9.4,3.84,8.22
3570,6.5,310.62,-71.37,-9.22,3.71,9.96
3580,5.87,255.62,-59.19,-9.32,3.85,11.2
3590,-12.94,202.75,-50.63,-9.09,3.57,12.08
3600,-27.19,138.87,-37.31,-9.09,3.57,12.08
3610,-22.56,76.37,-21.56,-8.81,3,11.12
3620,-12,26.25,-11.81,-8.19,3.42,8.27
3630,-8.44,-10,-11.81,-8.23,3.99,7.54
3640,-5.5,-33.44,-13,-8.2,4.26,6.95
3650,-2.69,-47.38,-5.37,-8.2,4.26,6.95
3660,-7.31,-58.69,8.5,-8.16,4.25,6.74
3670,-16.69,-69.81,25.12,-7.97,3.09,7.65
3680,-22.5,-83,41.38,-7.61,2.37,7.82
3690,-23.06,-103.06,55.75,-7.22,0.47,7.21
3700,-23.19,-130.69,67.19,-7.22,0.47,7.21
3710,-22.5,-158.5,72.25,-6.98,-0.13,6.9
3720,-16.94,-180.87,71.44,-5.86,-1.57,4.85
3730,-8.69,-200.62,67.56,-5.52,-1.83,3.97
3740,-5.62,-224.37,62.38,-5.32,-2.11,3.12
3750,-6.44,-248.69,55.88,-5.32,-2.11,3.12
3760,-3.62,-270.5,51.38,-5.03,-2.39,2.77
3770,4.75,-297.69,47,-4.19,-2.43,1.31
3780,11.81,-313.81,34.69,-4.01,-1.61,0.64
3790,16.31,-322.87,17.25,-3.8,-0.28,-2.25
3800,31.75,-305,2.62,-3.8,-0.28,-2.25
3810,54.06,-285.87,-2.94,-3.24,0.39,-3.45
3820,56.81,-273.31,-1.44,-2.22,1.09,-5.05
3830,39,-269.69,9.06,-0.97,-0.19,-6.49
3840,17.94,-267.87,25.69,-0.02,-1.15,-7.05
3850,3.69,-264.25,38,-0.02,-1.15,-7.05
3860,-5.5,-259.87,42.94,1.08,-1.87,-7.61
3870,-9.56,-260.75,39.13,3.05,-2.69,-11.77
3880,-8.31,-262.75,31.31,3.8,-2.75,-13.65
3890,-2.87,-258.06,23,4.4,-2.74,-15.69
3900,0.31,-243.37,14.38,4.4,-2.74,-15.69
3910,-6.25,-216.12,4,4.72,-1.82,-18.59
3920,-15,-179.12,-4.37,4.99,-0.95,-20.5
3930,-20.37,-138,-3.56,4.83,-1.27,-20.87
3940,-24.94,-92.06,4.81,4.91,-2.03,-20.64
3950,-22.5,-40.19,16.56,4.91,-2.03,-20.64
3960,-14.44,16.62,26.44,4.86,-2.83,-19.85
3970,-10.44,73.75,27.69,3.67,-3.37,-13.2
3980,-6.81,122.25,22.56,2.93,-3.46,-11.56
3990,7.44,160.06,16.06,2.29,-3.58,-10.26
4000,18.81,186.94,9.56,2.29,-3.58,-10.26
4010,14.75,200.62,0.44,1.3,-3.26,-7.47
4020,3.56,204.44,-11.88,0.2,-2.05,-5.59
4030,-5.56,202.06,-25.25,-1.25,-0.61,-4.76
4040,-8.38,197.5,-36.13,-1.25,-0.61,-4.76
4050,-3.94,195.75,-38.56,-1.85,-0.5,-4.84
4060,-2.62,199.75,-35.06,-2.62,-0.41,-4.72
4070,-4.31,210.87,-32.5,-3.29,-0.33,-4.3
4080,-1.87,227.62,-31.31,-4.26,-0.28,-2.61
4090,4.25,248.31,-33.81,-4.55,0.06,-1.48
4100,13.13,266,-38.44,-5.6,0.47,-0.7
4110,19.62,280,-40,-6.34,0.79,1.21
4120,17.19,291.81,-40.63,-6.65,0.82,2.21
4130,6.06,298.12,-43.56,-7.16,0.94,3.21
4140,-8,297.37,-48.63,-7.59,1.23,4.16
4150,-19.56,290.56,-50.88,-8.17,1.81,6.14
4160,-29.69,279.69,-49.06,-8.24,2.02,6.66
4170,-34.31,275.44,-45.5,-8.42,2.19,7.06
4180,-28.12,267.19,-39.56,-8.42,2.27,7.35
4190,-19.44,251.44,-32.25,-8.46,2.25,8.18
4200,-14.88,212.56,-25.44,-8.5,2.19,8.33
4210,-21.19,172.25,-22,-8.4,2.32,8.93
4220,-30.06,129.75,-18.94,-8.41,2.62,9.56
4230,-30.5,87.81,-14.06,-8.38,2.56,9.13
4240,-26.75,52.81,-8,-8.39,2.46,8.53
4250,-27,25.56,-2,-8.04,2.1,7.75
4260,-31.94,4.5,2.37,-7.77,2.08,7.69
4270,-35.5,-14.31,5.12,-7.58,2.04,7.59
4280,-32.69,-32.06,7.75,-7.3,1.96,6.88
4290,-28.56,-49.63,11.31,-7.07,1.85,6.5
4300,-27.62,-68,16.06,-6.84,1.74,6.12
4310,-29.62,-85.62,21.94,-6.67,1.46,5.88
4320,-28.87,-100.31,28.25,-5.98,0.53,5.38
4330,-25.06,-114.06,33.75,-5.51,-0.12,5.02
4340,-23,-126.19,34.63,-5.1,-0.71,4.85
4350,-23.81,-137.62,28.94,-4.55,-1.31,4.31
4360,-26.19,-150.81,19.44,-4.24,-1.5,4.05
4370,-33.06,-166.94,8.13,-3.97,-1.56,3.88
4380,-43.38,-183.06,-6.81,-3.98,-1.24,4.15
4390,-38.88,-197.62,-20.69,-4.07,0.05,3.81
4400,-13.25,-212.37,-24.69,-3.96,0.36,2.81
4410,4.25,-232.12,-21.75,-3.73,0.64,1.9
4420,-5.19,-255.5,-15,-3.27,0.62,1.51
4430,-23.25,-276.56,-6.75,-2.81,0.22,1.59
4440,-28.44,-286.87,-3.06,-2.56,-0.02,0.67
4450,-16.75,-267,-3.25,-1.85,-0.4,-0.27
4460,-1.94,-255.69,-4.81,-0.96,-0.51,-2.48
4470,1.62,-250.87,-7.87,-0.44,-0.26,-3.06
4480,3.69,-259.44,-3.69,0.32,-0.49,-4.16
4490,9.13,-279.94,3.69,1.97,-0.86,-8.04
4500,19,-296.75,5,2.39,-0.53,-10.47
4510,36.38,-302.94,7.31,2.88,-0.44,-13.53
4520,50.19,-293.12,17.81,3.46,-1.18,-19.3
4530,53.69,-259.56,31.37,3.9,-2.03,-21.4
4540,49.06,-204.75,44.06,4.44,-3.21,-23.03
4550,31.44,-142.12,51.25,5.11,-4.5,-23.77
4560,5.94,-73.37,44.19,5.69,-5.56,-21.91
4570,-4.62,-1.25,24,5.46,-5.33,-20.07
4580,2.56,68.5,-1.31,4.86,-4.59,-17.61
4590,11.94,124.25,-23.62,3.29,-2.36,-12.23
4600,15.56,162.12,-38.06,2.4,-1.24,-9.86
4610,19.12,183.62,-43.19,1.49,-0.46,-8.15
4620,22.69,193.31,-40.88,0.72,-0.04,-6.9
4630,17.87,194.37,-35.63,-0.06,0.19,-4.53
4640,9.69,189.62,-30.06,-0.55,0.1,-3.77
4650,9.31,183.69,-25.56,-0.96,-0.15,-3.38
4660,14.31,180.06,-24.31,-1.25,-0.5,-2.93
4670,16.87,178.44,-28.44,-1.71,-0.42,-2.9
4680,14.13,178.12,-35.94,-2.23,-0.13,-2.75
4690,9,180.81,-43.88,-2.64,0.32,-2.39
4700,6.37,187.25,-47.88,-3.62,1.03,-1.67
4710,6.19,197.37,-46.94,-4.07,0.94,-1.29
4720,0.62,211.69,-43.19,-4.51,0.73,-0.63
4730,-12.31,224.25,-42.69,-4.89,0.78,1.76
4740,-24.81,229.69,-46.31,-5.21,0.9,2.68
4750,-31.19,225.69,-49.69,-5.73,1.09,3.32
4760,-31.37,221.5,-50.88,-6.21,1.27,4.35
4770,-33.38,218.06,-49.69,-6.37,1.28,4.79
4780,-44,213.69,-49.56,-6.64,1.47,5.64
4790,-55.56,206.81,-50.75,-6.88,1.77,6.57
4800,-53.75,202.5,-50.81,-7,2.49,7.57
4810,-36,203.12,-49,-7.38,2.66,7.23
4820,-20.5,198.12,-45.44,-7.81,3.02,7.16
4830,-19.75,179.12,-34.63,-7.99,2.81,8.91
4840,-29.62,132.94,-22.12,-8.04,2.55,9.92
4850,-44.38,94.31,-11.81,-8.06,2.19,10.71
4860,-46.06,52.69,-4.37,-7.93,1.9,11.13
4870,-34.63,12.38,-2,-7.78,2.04,10.6
4880,-21.75,-26.62,-2.75,-7.95,2.52,9.86
4890,-13.31,-62.25,-0.06,-8.01,2.85,8.9
4900,-11.06,-89.94,11.13,-7.89,2.19,7.19
4910,-17.31,-107.87,23.69,-7.68,1.56,7.1
4920,-29.19,-120.81,32,-7.33,0.93,7.4
4930,-37.88,-134.31,34.06,-7.02,0.42,7.88
4940,-40,-153.5,30.19,-6.96,0.3,8.2
4950,-34.63,-180.12,25.81,-6.93,0.2,7.69
4960,-29.19,-211.56,25.5,-6.79,-0.27,6.73
4970,-29.94,-240.75,24.81,-6.12,-1.13,4.64
4980,-32.69,-265.44,18.87,-5.47,-1.07,4.15
4990,-28.31,-288.56,6.31,-5.22,-0.41,3.75
5000,-15.13,-320.75,-6.19,-5.44,1.61,2.21
5010,-5.19,-360.87,-7.87,-5.54,2.37,1.42
5020,0.56,-396.44,4.75,-5.03,2.41,-0.81
5030,22.31,-377.75,28.37,-4.31,1.53,-3.24
5040,46.69,-353.56,50.94,-2.16,-0.11,-7.17
5050,40.69,-312.94,59,-1.57,0.1,-6.83
5060,21.25,-270.94,58.56,-0.96,0.52,-5.98
5070,15.75,-243.44,61.19,-0.29,0.53,-5.9
5080,21.5,-240.87,71.87,0.42,-0.14,-6.8
5090,26.56,-255.75,86.06,1.16,-0.66,-7.81
5100,35.06,-270.25,94.25,1.51,-0.91,-9.13
5110,50.56,-278.5,100.06,1.16,-2.15,-14.06
5120,54.69,-282.06,109.87,1.69,-3.18,-16.84
5130,34.5,-279.94,115.62,2.2,-4.22,-19.26
5140,9.19,-259.75,110.06,2.7,-5.98,-23.19
5150,4.5,-216.06,92.81,3.17,-6.36,-24.82
5160,16.62,-152.31,64.12,3.33,-6.08,-26.02
5170,31.37,-72.06,30.87,2.94,-5.29,-26.58
5180,40.56,22.12,5.69,1.58,-3.4,-24.26
5190,38.31,122.31,-5.87,0.87,-2.59,-20.55
5200,29.87,207.12,-8,0.07,-1.96,-16.54
5210,29.12,265.37,-5.19,-0.95,-1.9,-10.13
5220,37,303.31,-1.94,-1.31,-2.12,-7.86
5230,38.75,317.12,-3.75,-1.61,-2.1,-5.83
5240,34.44,313.94,-13.69,-2.22,-1.63,-4.07
5250,37.13,303.75,-25.81,-2.7,-0.71,-2
5260,43.25,287.06,-32.88,-3.09,-0.6,-1.99
5270,40.38,266.56,-36.25,-3.55,-0.51,-2.21
5280,30.25,251.12,-37.94,-3.95,-0.73,-2.62
5290,20.25,251.44,-40.94,-4.51,-0.65,-2.19
5300,14.63,269.25,-48.81,-5.27,-0.37,-1.4
5310,16.19,297.12,-57.56,-6.01,0.27,1.25
5320,19.75,326.31,-63.56,-6.49,0.57,2.58
5330,22.75,344.75,-66.69,-7.04,0.78,3.68
5340,24.12,347.94,-67.25,-7.28,0.87,4.58
5350,18.19,337.37,-67.37,-7.29,0.97,6.44
5360,3.56,319.56,-68.81,-7.4,1.22,7.08
5370,-11.25,305.94,-72.62,-7.59,1.63,7.6
5380,-10.06,304.81,-76.25,-7.82,2.51,8.07
5390,0.62,289.94,-72.87,-7.48,2.61,8.74
5400,1.44,250.19,-66.12,-7.72,2.5,8.86
5410,-14.38,204.31,-63.69,-7.85,2.9,9.64
5420,-30.87,162.44,-58.88,-7.96,3.77,10.94
5430,-33.44,117.5,-45.25,-7.88,3.71,11.01
5440,-21.12,77.81,-28.19,-7.94,3.51,10.73
5450,-2.37,45,-12.19,-7.66,2.89,9.73
5460,10.56,17.31,0.75,-7.51,2.58,9.18
5470,9.5,-9.38,9.88,-7.37,2.29,8.83
5480,-3.12,-35.38,14.63,-7.3,2.16,8.77
5490,-14.81,-59.44,16.94,-7.52,1.99,8.74
5500,-18.87,-83.31,20,-7.53,1.87,8.5
5510,-20.31,-108.75,24.69,-7.41,1.65,8.12
5520,-25.31,-137.75,28.81,-7.12,1.07,6.82
5530,-32.75,-168.69,30.87,-6.89,0.76,6.11
5540,-37.5,-196.75,31.62,-6.56,0.47,5.26
5550,-39.56,-218.31,31.19,-5.9,-0.1,3.33
5560,-42.5,-232.94,28.94,-5.66,-0.31,3
5570,-43.31,-240.19,23.75,-5.38,-0.33,3.11
5580,-36,-240.81,18.19,-5.18,-0.38,3.01
5590,-26.94,-239.62,13.38,-4.78,-0.41,2.34
5600,-30.62,-241.25,6.5,-4.78,0.09,2.69
5610,-41.44,-253,-0.31,-4.74,0.71,3.01
5620,-44.19,-280.5,2.06,-4.4,0.65,2.37
5630,-42.25,-327.62,12.13,-4.67,0.36,1.49
5640,-39.19,-377.12,22.12,-4.15,-0.08,-0.36
5650,-25.25,-383.06,30.44,-3.23,-0.64,-2.27
5660,-5.81,-391.31,30.44,-2.52,-0.82,-7.25
5670,2.87,-387.5,21.56,-1.67,-0.13,-8.94
5680,5.56,-365,9.94,-1.25,0.96,-10.13
5690,15.63,-326.87,4.19,-1.58,2.78,-12.4
5700,29,-281.75,14.44,-0.99,3.14,-12.82
5710,31.56,-242,35.38,-0.93,3.3,-13.18
5720,27.75,-222.25,64.44,-0.58,2.66,-14.23
5730,19,-221.94,103.87,0.01,-1.98,-18.07
5740,1.06,-221.31,138.25,1.33,-4.42,-19.56
5750,-15.44,-202.62,145.69,2.1,-6.19,-20.59
5760,-9.13,-164.56,128.31,3.1,-8.24,-23.01
5770,18.44,-107.75,96.12,3.43,-8.36,-23.98
5780,48.19,-29.5,53.06,3.29,-7.78,-23.96
5790,63.88,64.56,9.19,1.74,-4.79,-18.95
5800,66.37,153.75,-23.56,0.65,-3.05,-15.35
5810,63.13,220.06,-39.94,-0.38,-1.72,-12.1
5820,61.13,260.25,-40.31,-1.18,-1.15,-9.55
5830,59.5,274,-31.87,-1.45,-1.41,-6.13
5840,52.56,269.87,-25.44,-1.78,-1.62,-5
5850,44.5,256.25,-25.81,-2.03,-1.68,-4.23
5860,44.63,243.19,-33.69,-2.46,-1.08,-3.44
5870,53.06,237.19,-45.88,-3.25,-0.63,-3.63
5880,61.06,238.62,-55.5,-3.69,-0.36,-3.89
5890,56.38,246.37,-60.75,-4.24,-0.12,-3.8
5900,41.13,260.56,-63.94,-5.12,0.47,-2.08
5910,28.37,280.44,-64.37,-5.59,0.56,-0.86
5920,21.31,303.81,-63.44,-5.94,0.59,0.58
5930,17.37,321.5,-62.56,-6.06,0.74,3.73
5940,14.69,327.31,-63.5,-6.22,0.94,4.87
5950,12.31,322.37,-67.19,-6.38,1.24,5.84
5960,12.31,322.37,-67.19,-6.67,1.66,6.47
5970,8.75,305.56,-71.37,-6.63,2.66,7.49
5980,0.94,248,-67.31,-6.66,2.77,7.18
5990,-0.75,217.87,-54.13,-6.6,2.56,6.75
6000,-8.38,189.19,-39.81,-6.42,2.07,6.71
6010,-8.38,189.19,-39.81,-6.41,1.98,7.16
6020,-23.12,170.25,-31.06,-6.39,1.92,7.64
6030,-29.06,184.19,-27,-6.35,2.24,8.24
6040,-16.75,192.44,-29,-6.12,2.51,9.2
6050,-5.19,168.81,-30.19,-6.65,2.87,9.44
6060,-5.19,168.81,-30.19,-7.07,3.49,10.22
6070,-6.31,125.12,-31.87,-7.72,3.88,11.08
6080,-16.56,36.06,-9.69,-7.55,3.44,10.73
6090,-15.13,-9.25,7.62,-7.2,2.93,10.16
6100,-15.88,-49.31,17.87,-7.15,2.49,8.9
6110,-15.88,-49.31,17.87,-7.19,2.45,8.28
6120,-12.75,-77.87,21.56,-7.21,2.3,7.68
6130,-3.25,-108.69,25.62,-7.2,2.13,7.16
6140,-16.69,-126.94,27.19,-7.12,1.81,6.88
6150,-37.06,-148.94,27.81,-7.16,1.64,7.08
6160,-37.06,-148.94,27.81,-7.23,1.39,7.02
6170,-47.44,-171.5,28.87,-6.89,0.47,5.84
6180,-39.13,-215.81,33.06,-6.62,-0.02,4.74
6190,-39.38,-241.06,30.81,-6.09,-0.3,4.19
6200,-44.81,-263.25,21.44,-5.82,-0.02,4.26
6210,-44.81,-263.25,21.44,-5.92,0.59,3.18
6220,-30.5,-283.12,12.69,-5.77,0.54,2.1
6230,7.25,-338.69,24.75,-5.39,0.23,1.29
6240,-3.44,-359.56,35.31,-4.69,-0.77,-1.42
6250,-0.56,-339.12,44.19,-3.27,-1.59,-2.92
6260,-0.56,-339.12,44.19,-3.27,-1.59,-2.92
6270,13,-326.56,44.38,-1.97,-1.9,-4.23
6280,3.94,-280.06,14.44,-1.5,0.97,-4.52
6290,6.19,-259.25,14.75,-1.11,1.5,-4.24
6300,16.87,-246.5,28.87,-0.98,1.91,-4.05
6310,16.87,-246.5,28.87,-0.98,1.91,-4.05
6320,35.44,-251.37,50.5,-1.42,1.19,-6.13
6330,91.25,-298.81,119.44,-0.89,-1.96,-11.29
6340,104.12,-317.75,149.87,-0.41,-6.21,-17.7
6350,97.06,-318.56,165.62,0.68,-7.83,-20.59
6360,97.06,-318.56,165.62,0.68,-7.83,-20.59
6370,71,-296.5,159.94,1.36,-9.05,-22.74
6380,29.5,-188,93.06,2.22,-9.92,-26.68
6390,33.06,-107.37,48.19,2.5,-9.55,-26.91
6400,40.06,-9.13,5.12,2.32,-8.55,-25.44
6410,40.06,-9.13,5.12,2.32,-8.55,-25.44
6420,42.94,96.75,-34.13,0.95,-5.3,-18.03
6430,43.25,184,-61.56,-0.63,-2.83,-11.28
6440,40.31,235.25,-74,-1.22,-2.1,-8.99
6450,41.19,260.31,-76.81,-1.5,-1.35,-6.3
6460,46.44,265.25,-77.19,-1.5,-1.35,-6.3
6470,49.56,256.37,-76.31,-1.9,-1.06,-5.82
6480,49.25,244.25,-77,-3.26,-0.64,-5.58
6490,47.38,239.44,-78.69,-3.7,-0.87,-5.63
6500,43.75,243.69,-79.94,-4.15,-0.89,-4.82
6510,29.87,256.62,-80.06,-4.15,-0.89,-4.82
6520,11.38,277.25,-84.62,-4.97,-0.19,-1.63
6530,10.5,301.94,-91.5,-5.94,-0.08,0.4
6540,26.87,324.06,-95.25,-6.21,-0.08,1.32
6550,38.75,333.94,-97.12,-6.33,0.26,3.05
6560,39.69,329.81,-101.25,-6.33,0.26,3.05
6570,34.75,317.06,-107.44,-6.65,0.6,3.61
6580,27.44,301.37,-115.37,-7.12,2.38,5.07
6590,22,284.5,-123.12,-7.7,3.08,5.04
6600,21.44,269.37,-130.06,-8.04,3.67,5
6610,20.19,259.25,-131.69,-8.04,3.67,5
6620,9.88,256.44,-125.75,-8.36,4.09,5.4
6630,-8.63,259.06,-115.25,-9.03,4.82,7.35
6640,-20.5,276.19,-103.75,-9.41,5.08,8.57
6650,-15.44,298.12,-92.19,-9.26,4.94,11.08
6660,-3,284.56,-74.12,-9.26,4.94,11.08
6670,-1.75,232.31,-60.5,-9.3,4.96,12.29
6680,-21.06,175.69,-46.63,-9.23,4.61,13.63
6690,-39.81,105,-29.44,-8.7,3.83,12.41
6700,-42.94,33.75,-12.25,-8.59,3.75,10.88
6710,-31.5,-28.56,-1.25,-8.59,3.75,10.88
6720,-15.56,-73.62,4.19,-8.47,3.92,9.38
6730,-6.12,-100.44,10.13,-8.48,3.6,6.53
6740,-7.94,-115.37,20.5,-8.29,2.87,6.76
6750,-20.62,-122.87,34.19,-7.94,2.25,7.55
6760,-38.44,-128.25,44.44,-7.94,2.25,7.55
6770,-51.13,-141.25,47.31,-7.99,1.53,8.71
6780,-52.19,-167.44,47.19,-7.77,0.63,7.36
6790,-47.44,-204.56,49.75,-7.23,-1.14,4.58
6800,-51.56,-246.56,53.56,-6.85,-1.6,4.26
6810,-70.19,-282.19,50.69,-6.85,-1.6,4.26
6820,-87.75,-305.94,36.31,-6.44,-1.47,4.44
6830,-76.37,-322,17.75,-6.01,-0.23,1.84
6840,-40.69,-348.12,6.37,-5.84,0.01,0.56
6850,-18.56,-388.69,3.12,-5.46,0.3,-1.23
6860,-27.31,-434.56,7.44,-5.46,0.3,-1.23
6870,-30.12,-420.81,16.94,-4.2,-0.94,-5.5
6880,-14.13,-400.69,26.44,-2.06,-1.67,-7.21
6890,-14.44,-354,21.5,-2.01,0.66,-4.73
6900,-32.81,-298.31,1.06,-1.71,1.34,-4.53
6910,-33.63,-262.5,-10.06,-1.71,1.34,-4.53
6920,-7.75,-259,-4.56,-1.66,1.35,-6.14
6930,22.81,-285.87,13.69,0.21,-1.42,-14.26
6940,32.38,-318.81,37.31,0.78,-1.83,-16.36
6950,24,-333.62,50.38,1.21,-2.22,-18.68
6960,22.44,-316.56,50.56,1.21,-2.22,-18.68
6970,31.62,-262.69,46.5,2.29,-3.21,-21.5
6980,31.25,-192.31,41.19,3.02,-3.48,-21.41
6990,18.06,-127.44,33.56,3.05,-3.63,-21.41
7000,9.06,-74.31,25.69,3.06,-3.91,-20.57
7010,10.25,-24.87,19.06,3.06,-3.91,-20.57
7020,12.63,25.19,12.38,3.04,-3.86,-19.28
7030,14.69,72.81,5.75,2.77,-3.67,-17.56
7040,18.5,116.62,-0.44,2.15,-3.46,-13.91
7050,22.31,154.69,-7.31,1.48,-3.14,-12.19
7060,24.25,184.31,-16.12,0.75,-2.88,-10.67
7070,26.12,204.25,-25.06,-0.1,-2.17,-8.24
7080,24.44,214.56,-34.63,-0.75,-1.41,-7.11
7090,20.75,220.25,-44.94,-1.3,-0.72,-6.25
7100,22.56,223,-51.06,-1.74,-0.4,-5.87
7110,25.94,225.19,-52.63,-2.58,0.21,-5.35
7120,30,242.5,-52.56,-3.2,0.48,-5.11
7130,30,242.5,-52.56,-3.84,0.65,-4.78
7140,31.87,258.94,-50.81,-4.65,0.6,-3.29
7150,28.94,277.37,-48.13,-5.19,0.47,-2.21
7160,21.06,296.12,-46.25,-5.62,0.49,-0.85
7170,14.38,310.81,-48.31,-5.92,0.67,0.5
7180,16.69,317.31,-52.06,-6.32,1.1,2.49
7190,24.81,314.94,-54.44,-6.66,1.15,2.82
7200,26.37,305.69,-54.25,-6.77,1.16,3.32
7210,16.31,294.56,-53.19,-6.99,1.3,4.95
7220,-2.12,280.19,-52.44,-7.14,1.44,5.73
7230,-2.12,280.19,-52.44,-7.16,1.37,6.38
7240,-4.62,273.37,-53.06,-7.3,1.46,6.98
7250,1.69,271.25,-60.19,-7.55,2.28,7.69
7260,1.69,271.25,-60.19,-7.61,2.69,7.62
7270,7.87,255.25,-52.5,-7.74,3.11,7.65
7280,7.87,255.25,-52.5,-7.48,3.46,9.31
7290,10,209.12,-40.31,-7.53,3.33,9.64
7300,5.44,165.87,-27.56,-7.54,3.11,9.76
7310,-16.69,71.19,-0.62,-6.84,2.27,9.96
7320,-20.5,28.31,6.81,-6.49,1.68,9.59
7330,-20.5,28.31,6.81,-6.12,1.27,8.9
7340,-18.25,-7.62,7.56,-5.83,1.11,7.97
7350,-7.5,-47,0.81,-5.62,1.41,6.27
7360,-6.75,-53.44,1.75,-5.58,1.52,5.67
7370,-14.44,-57.63,4.69,-5.44,1.51,5.55
7380,-14.44,-57.63,4.69,-5.31,1.81,6.42
7390,-23.94,-67.44,7.87,-5.26,1.9,6.76
7400,-15.56,-107.37,24.5,-5.16,1.53,6.36
7410,-17.25,-129.44,31.19,-4.91,0.73,5.47
7420,-30.5,-144.94,27.31,-4.33,-0.54,4.38
7430,-30.5,-144.94,27.31,-4.3,-0.54,4.68
7440,-26.87,-169.56,4.44,-4.22,-0.25,4.9
7450,-12.5,-189.19,-1.5,-4.3,0.3,3.45
7460,-9.94,-212.69,-4.37,-4.38,0.55,2.87
7470,-8.69,-233.25,-3.81,-4.41,0.82,2.84
7480,-8.69,-233.25,-3.81,-4.15,1,2.76
7490,-1.87,-269.87,6,-4.11,1.13,1.65
7500,-7.25,-276.94,13.56,-3.97,1.13,0.83
7510,-3.81,-250.87,22.25,-3.79,0.81,0.17
7520,6.62,-226.62,26.12,-2.91,-0.29,-0.99
7530,8.25,-205.25,22.87,-2.68,-0.54,-0.95
7540,-1.19,-198.62,19,-2.34,-0.54,-0.57
7550,-12.13,-208.06,17.75,-1.91,-0.7,-0.29
7560,-18.06,-225.5,15.88,-1.3,-1.14,-0.89
7570,-16.94,-241.19,11,-0.92,-1.13,-1.35
7580,-8.38,-245.87,7.12,-0.9,-0.96,-2.03
7590,-0.75,-240.87,5,-0.43,-0.65,-3.79
7600,-1.19,-238.25,1.31,0.16,-0.35,-4.3
7610,-1.94,-246.19,-2.12,0.67,0.27,-4.81
7620,6.69,-257.5,1,0.8,1.26,-7.47
7630,20.31,-260.56,13.56,1.14,1.37,-9.45
7640,25.25,-252.5,34,1.44,0.98,-11.58
7650,17.37,-229.94,53.13,2.01,0.17,-13.48
7660,2.56,-196.31,63.63,2.97,-1.86,-15.88
7670,-4.44,-152.69,62.31,3.57,-2.61,-16.37
7680,0.69,-102.06,53.56,3.78,-3.15,-16.65
7690,10.5,-49.81,40.75,3.87,-3.77,-17.03
7700,14.31,1.12,27.19,3.7,-3.83,-16.63
7710,13.19,48.38,14.31,3.49,-3.62,-15.56
7720,15.19,89.69,4.69,3.17,-3.18,-14.01
7730,20.31,123.25,-0.69,2.65,-2.3,-10.41
7740,25,147.56,-3.12,2.33,-1.95,-8.69
7750,30.94,163.06,-3.69,1.96,-1.76,-7.15
7760,40.38,173,-2.5,1.62,-1.65,-4.56
7770,50.38,175,-0.5,1.22,-1.78,-3.84
7780,54.38,168.87,-0.37,0.99,-1.97,-3.54
7790,49.75,159.94,-3.69,0.79,-2.21,-3.44
7800,40.81,153.75,-11.38,0.37,-2.52,-3.26
7810,34.06,152.56,-22.31,0.14,-2.39,-3.11
7820,35.75,154.56,-34,-0.25,-2.01,-2.82
7830,44.81,158.44,-44.44,-0.96,-1.31,-2.91
7840,49.56,165.37,-53.5,-1.39,-0.93,-3.02
7850,48.63,173,-62.06,-1.94,-0.35,-2.68
7860,50.5,179.75,-67,-2.84,0.96,-1.7
7870,53.38,185.44,-66.75,-3.3,1.35,-1.52
7880,50,190.5,-63.81,-3.8,1.58,-1.35
7890,36.69,198.06,-60,-4.21,1.65,-1.13
7900,20.5,203.37,-56.25,-4.6,1.88,0.68
7910,13.19,205.44,-52.38,-4.83,1.83,1.54
7920,14.75,206,-51.19,-5.07,1.74,2.19
7930,17.37,202.62,-53.13,-5.25,1.82,3.07
7940,12.69,196.94,-55.19,-5.54,1.93,3.23
7950,0.94,190.69,-56.13,-5.78,2.1,3.59
7960,-10.5,184.31,-55.56,-6.13,2.35,4.11
7970,-18.12,176.12,-52.88,-6.34,2.83,5.45
7980,-21.87,164.31,-49.63,-6.44,3,5.95
7990,-21.94,148.31,-46,-6.57,3.2,6.47
8000,-16.5,132.62,-40.56,-6.96,3.79,7.21
8010,-7.5,122.62,-30.94,-7.13,3.83,7.15
8020,-4.44,108.19,-19.19,-7.17,3.69,6.95
8030,-12.19,86.5,-8.94,-7.15,3.47,6.92
8040,-24.06,61.5,-1.56,-6.88,3.21,7.5
8050,-29.81,36.69,3.19,-6.72,3.06,7.85
8060,-27.31,6.19,6.56,-6.66,2.98,8.32
8070,-21.5,-27.12,9.56,-6.75,3.05,8.26
8080,-18.19,-57.38,15.06,-6.84,3.13,7.98
8090,-18,-83.62,24.62,-6.77,3.02,7.52
8100,-21.06,-104.56,34.56,-6.43,2.16,6.5
8110,-27.25,-121.56,41.56,-6.13,1.68,6.33
8120,-33.75,-138.19,44.38,-5.87,1.21,6.15
8130,-40,-157.19,44.38,-5.6,0.82,5.99
8140,-45.38,-176.25,42.25,-5.21,-0.19,5.12
8150,-49.44,-191.19,36.31,-4.98,-0.62,4.79
8160,-52.5,-203.5,26,-4.64,-0.86,4.66
8170,-44.38,-215.06,16,-4.79,-0.55,4.76
8180,-19.12,-234.31,12.88,-4.55,-0.4,4.4
8190,-0.31,-267.69,17.06,-4.35,-0.44,3.38
8200,-7.5,-307.5,22.56,-4.14,-0.64,2.36
8210,-22.5,-320.56,28,-3.83,-1.07,-0.01
8220,-15.69,-308.75,30.31,-2.84,-1.52,-1.1
8230,-0.75,-293.5,25.94,-2.25,-2,-2.67
8240,-4.12,-267.44,12.25,-0.28,-2.46,-5.06
8250,-22.19,-239.87,-11.31,0.18,-1.67,-4.72
8260,-24.44,-221.62,-31.19,0.29,-0.11,-3.69
8270,0.19,-225,-30.25,0.53,1.56,-3.27
8280,19.69,-251.5,-5.06,0.63,2.35,-7.24
8290,4.56,-284.81,29.44,1.29,1.36,-10.06
8300,-30,-308.81,56.81,2.03,0.11,-12.46
8310,-53.19,-311.94,70.31,2.88,-2.37,-16.77
8320,-50.81,-286.19,71.06,3.42,-3.57,-18.97
8330,-30,-236.69,58.75,3.89,-4.53,-21.09
8340,-2.87,-170.94,35.06,4.08,-4.9,-24.16
8350,26.81,-91,8.63,3.69,-4.32,-25.05
8360,49.75,0.62,-8.25,2.99,-3.56,-25.41
8370,50.56,96.31,-11.38,2.09,-2.97,-24.29
8380,31.06,172.5,-7.44,1.26,-2.41,-17.35
8390,14.31,220.06,-4.37,0.85,-2.39,-13.79
8400,12.31,244.69,-7.37,0.34,-2.38,-10.8
8410,18.37,248.06,-16.81,-0.08,-2.03,-6.81
8420,26.94,236.87,-29.19,-0.51,-1.56,-5.75
8430,36.75,220.69,-41.06,-0.86,-0.94,-5.31
8440,48.13,212.25,-49.75,-1.48,-0.11,-5.18
8450,61.25,216.19,-50.69,-2.62,1.25,-5.38
8460,64.19,229,-45.13,-3.27,1.4,-5.56
8470,54.88,245.06,-38.5,-3.89,1.47,-5.28
8480,45.38,262.31,-32,-4.42,1.27,-3.89
8490,40.81,282.37,-28.06,-4.89,0.97,-3.1
8500,41.06,303.25,-29.44,-5.19,0.82,-1.99
8510,44.38,319.12,-32.63,-5.86,0.83,-1.06
8520,43.25,328.37,-34.25,-6.28,0.58,1.04
8530,34.75,328.94,-38.38,-6.49,0.46,1.89
8540,21.44,320.37,-45.5,-6.7,0.47,2.73
8550,10.31,306.94,-53.75,-6.56,0.91,4.5
8560,3.56,293.12,-62.31,-7.26,1.39,5.04
8570,0.19,281.87,-64.69,-7.36,1.82,5.31
8580,-8.06,271.12,-60.81,-7.61,2.04,5.58
8590,-18.5,263.25,-55.88,-7.42,2.56,6.79
8600,-19.94,263.06,-50.94,-7.67,2.73,7.07
8610,-12.13,255.5,-44.63,-7.7,2.85,7.13
8620,-5.87,247.25,-38.56,-7.75,3.08,8.31
8630,-6.25,208.81,-32.75,-7.7,3.16,8.79
8640,-16.56,170.5,-26.81,-7.92,3.28,9.66
8650,-25.31,123.25,-18,-7.97,3.5,11.05
8660,-25,73.44,-6.69,-7.98,3.23,10.92
8670,-23.37,28.56,2.19,-7.69,2.95,10.62
8680,-24.19,-10.81,5.62,-7.51,2.81,10.25
8690,-24.25,-44.44,8.31,-7.8,3.1,9.16
8700,-24.56,-71.44,15.06,-7.62,3,8.48
8710,-31.62,-95.25,22.5,-7.31,2.65,7.84
8720,-42.31,-116.25,26.06,-6.81,1.89,6.72
8730,-47.13,-130.81,25.31,-6.77,1.78,6.55
8740,-44.06,-141.06,23.44,-6.68,1.69,6.48
8750,-40.06,-151.37,22.31,-6.66,1.62,6.43
8760,-40.69,-166.25,21.19,-6.84,1.7,6.33
8770,-42.5,-188.12,23.5,-6.85,1.71,6.3
8780,-41.5,-215.31,29,-6.76,1.43,5.96
8790,-35.81,-242.06,34.75,-6.77,0.41,4.22
8800,-24.62,-266.44,39.25,-6.71,-0.23,3.58
8810,-14.31,-290.94,41.5,-6.51,-0.84,2.92
8820,-15.88,-312.75,39.25,-6.15,-1.45,2.35
8830,-27.69,-334.94,33.31,-5.46,-1.91,1.39
8840,-33.13,-338,26.31,-4.75,-2.16,0.35
8850,-22.19,-326.06,15.94,-4.22,-2.65,-0.72
8860,-11.06,-314.5,-1,-2.91,-2.83,-3.63
8870,-10.56,-294.12,-22.69,-2.73,-2.1,-4.22
8880,-12.88,-273.5,-37,-2.21,-1.17,-4.44
8890,-10.44,-256.06,-38.38,-2.13,0.21,-5.3
8900,-12.5,-247,-26.5,-1.33,0.02,-6.08
8910,-28.06,-249.87,-12.63,-0.22,-0.46,-6.71
8920,-40,-256.81,-8,0.84,-0.77,-6.9
8930,-28.37,-263.12,-10.06,1.76,-0.82,-8.59
8940,-2.69,-260.62,-14.75,2.32,-0.71,-10.2
8950,14.75,-250.94,-19.5,2.65,-0.28,-12.11
8960,16.62,-236.25,-18.25,2.89,0.7,-15.79
8970,16.62,-236.25,-18.25,3.17,0.84,-17.45
8980,10.69,-215.62,-7.75,3.28,0.72,-18.96
8990,7.12,-137,25.62,3.46,0.22,-20.34
9000,8.25,-80,39.38,3.63,-1.48,-21.47
9010,9.69,-18,46.69,3.76,-2.47,-21.25
9020,9.69,-18,46.69,3.67,-3.42,-20.57
9030,9.13,43.06,45,3.33,-4.28,-16.95
9040,4.12,147,16.62,2.79,-3.85,-14.28
9050,16.87,183,-0.44,2.08,-3.2,-11.96
9060,32.13,205.37,-12.75,1.23,-2.46,-10.22
9070,32.13,205.37,-12.75,0.18,-1.22,-7.5
9080,36.63,214.75,-19.94,-0.3,-0.73,-6.47
9090,27.56,205.12,-23.31,-0.59,-0.46,-5.89
9100,28.44,200.69,-25.19,-1.14,0.04,-5.04
9110,36.63,202.94,-28.19,-1.77,0.39,-4.93
9120,36.63,202.94,-28.19,-2.26,0.78,-4.96
9130,46.56,211.81,-29.31,-2.84,1.03,-4.94
9140,47.88,243.62,-27.31,-3.63,1.21,-3.85
9150,45.19,262.56,-26.5,-4.24,1.36,-2.89
9160,49.88,278.44,-25.5,-4.74,1.59,-1.82
9170,49.88,278.44,-25.5,-5.33,1.47,-0.37
9180,58.44,288.5,-22.37,-5.53,1.27,-0.01
9190,47.81,290.94,-17.75,-5.72,1.06,0.6
9200,36.19,286.25,-19.62,-6.01,0.93,2.38
9210,29.12,284,-23.69,-6.21,0.96,2.95
9220,29.12,284,-23.69,-6.5,1.12,3.59
9230,21.12,283.75,-29,-6.69,1.17,4.27
9240,7.19,278.94,-39.94,-7.06,1.45,5.94
9250,-0.25,269.44,-43.5,-7.15,1.68,6.44
9260,-5.12,264.5,-46.25,-7.33,1.92,6.72
9270,-5.12,264.5,-46.25,-7.33,1.92,6.72
9280,-2.37,261.69,-47.06,-7.51,2.4,7.24
9290,8.25,227.69,-43.13,-7.81,3.07,8.42
9300,2.94,182.87,-34.19,-7.93,3.31,8.73
9310,-11.81,136.12,-23,-8.08,3.61,10.16
9320,-11.81,136.12,-23,-8.08,3.61,10.16
9330,-23.12,84.87,-7.87,-8,3.36,10.41
9340,-23.44,0.69,11.25,-7.42,1.92,9.67
9350,-18,-30.56,10.06,-7.33,1.86,9.17
9360,-12.94,-55.69,7.06,-7.19,1.99,8.6
9370,-12.94,-55.69,7.06,-7.19,1.99,8.6
9380,-13.25,-77.87,6.37,-7.15,2.31,7.02
9390,-34.31,-109.06,14.75,-6.9,1.95,6.33
9400,-43.5,-120.62,17.31,-6.73,1.74,6.52
9410,-43.5,-134.81,18,-6.7,1.52,6.85
9420,-43.5,-134.81,18,-6.7,1.52,6.85
9430,-37.63,-153.75,18.44,-6.64,1.48,6.78
9440,-32.75,-179.56,21.12,-6.1,0.62,4.6
9450,-32.06,-209.5,28.19,-5.64,-0.13,3.71
9460,-32.25,-235,36.38,-5.19,-0.97,3.07
9470,-33.5,-256.25,39.25,-5.19,-0.97,3.07
9480,-33.94,-276.31,33.75,-4.9,-1.66,2.94
9490,-26.19,-282.25,21.94,-4.9,-2.45,1.86
9500,-16.62,-281.19,8.31,-4.84,-2.48,1.26
9510,-20.62,-275.5,-9.5,-4.45,-1.47,0.86
9520,-33.94,-264.19,-28.87,-4.45,-1.47,0.86
9530,-35.5,-265.81,-44.25,-4.08,-0.64,1.17
9540,-14.25,-277.62,-51,-3.96,0.61,-0.37
9550,15.13,-289.94,-46.75,-3.55,0.82,-3.68
9560,32.06,-295.56,-35.63,-2.86,0.62,-4.97
9570,32.19,-288.25,-22.56,-2.86,0.62,-4.97
9580,19.75,-268.87,-14.88,-2.29,0.28,-5.86
9590,2.25,-248.75,-14.56,-0.03,0.6,-6.29
9600,-10.94,-242,-21.81,0.56,1.23,-6.91
9610,-15.19,-253.5,-27.56,1,1.84,-8.13
9620,-11,-272.87,-25.87,1,1.84,-8.13
9630,0.94,-284.69,-14.63,0.55,2.76,-12.09
9640,18.81,-280.81,6.81,1.69,1.92,-17.2
9650,31.56,-259.37,32.63,2.53,-0.04,-21.55
9660,28.94,-219,53.56,3.11,-1.08,-22.78
9670,16.75,-165.69,66.25,3.11,-1.08,-22.78
9680,3.19,-102.62,71.62,3.7,-2.13,-23.4
9690,-5.06,-32.25,68.94,3.74,-4.28,-21.07
9700,-4.31,43.13,62.25,3.41,-4.62,-18.53
9710,-2.5,113,52.25,2.91,-4.64,-15.54
9720,-2.87,162.5,40.31,2.91,-4.64,-15.54
9730,2.12,191.19,27.19,1.86,-4.09,-10.51
9740,13.19,200.75,15.63,0.78,-3.52,-8.11
9750,20.31,195.44,3.87,0.15,-2.7,-6.99
9760,24.56,186.69,-7.44,-0.27,-2.07,-6.96
9770,34.19,183.44,-19.12,-0.27,-2.07,-6.96
9780,46.13,188.37,-28.94,-0.85,-1.48,-7.3
9790,50.31,204.25,-36.19,-2.79,0.42,-6.31
9800,47.13,227.56,-40.94,-3.43,0.79,-5.43
9810,42.5,249.31,-40.13,-4.17,1.2,-4.39
9820,39.13,267.25,-37.31,-4.17,1.2,-4.39
9830,41.5,282.31,-32.5,-5.13,1.59,-2.2
9840,44.94,291.87,-25.12,-5.92,1.09,-0.95
9850,44.06,299.06,-18.5,-6.12,0.79,-0.17
9860,39.25,306.87,-17.44,-6.41,0.72,2.24
9870,36.88,314.44,-20.87,-6.41,0.72,2.24
9880,36.44,316.44,-26.06,-6.57,0.79,3.2
9890,33.19,309.5,-32.31,-6.84,1.5,5.67
9900,26.25,293.06,-36.88,-7,1.77,6.15
9910,21.19,271.06,-39.31,-7.29,2,6.22
9920,22.81,250.5,-38.75,-7.29,2,6.22
9930,22.5,235.87,-34.69,-7.36,1.89,6
9940,9.13,230.12,-31.75,-7.56,1.74,6.25
9950,-10.63,235.06,-31.44,-7.62,1.77,6.79
9960,-22.69,242.62,-33.06,-7.99,2.03,8.95
9970,-22.56,245.31,-37.75,-7.99,2.03,8.95
9980,-15.75,206.37,-37.69,-7.71,2.24,9.48
9990,-15,167.44,-37.13,-8.21,3.01,11.49
10000,-18.62,116.62,-33.06,-8.38,3.04,11.42
