timestamp,gyrox,gyroy,gyroz,accx,accy,accz
10,1.81,0.5,-3.44,0,0,0
20,0.62,-0.5,-3.81,0,0,0
30,-0.19,-2.06,-4.37,0,0,0
40,-0.31,-2.44,-4.44,0.09,-0.89,-19.57
50,0.5,-3.12,-3.81,0.09,-0.88,-19.53
60,1.19,-2.37,-2.75,0.02,-0.9,-19.67
70,2.37,-0.31,-2.37,0.12,-0.94,-19.5
80,76.87,-293.5,-85.81,0.44,5,-30.56
90,51,-259.12,-69.31,0.43,5.28,-32.33
100,4.94,-239.12,-59.88,0.36,5.69,-33.76
110,-24.31,-205.19,-56.25,0.16,7.36,-34.14
120,-16.5,-156.37,-49.69,-0.25,7.9,-33.99
130,7.31,-109.75,-34.63,-0.31,7.68,-34.14
140,9.69,-83.25,-21.62,-0.26,7.05,-34.84
150,-18.81,-77.44,-17.19,-0.32,6.65,-36.69
160,-51.75,-80.25,-20.44,-0.71,6.97,-37.91
170,-66.62,-72.19,-26.44,-1.21,7.71,-38.75
180,-51.5,-35.88,-26.56,-1.91,9.41,-39.84
190,-12.13,33.38,-14.63,-2.23,9.81,-39.57
200,24.56,119.81,6.5,-2.36,9.59,-37.93
210,34.31,191.56,29.37,-2.3,7.96,-32.81
220,7.81,234.25,51.81,-1.8,6.66,-30.37
230,-42.75,247.69,70.69,-0.97,5.56,-27.93
240,-86.87,248.44,83.31,0.03,4.68,-25.61
250,-101.62,250.87,87,1.25,3.63,-21.39
260,-86.75,257.25,84.81,2.1,3.25,-20.02
270,-66,266.5,78.62,2.82,2.9,-18.89
280,-57.13,274.81,69.56,3.43,2.79,-16.57
290,-56.31,282.06,60.25,3.82,3.2,-14.69
300,-50.5,288.87,55.69,4.33,3.52,-12.86
310,-43.25,289.62,58.31,5.06,3.34,-11.3
320,-42.06,284.19,59.5,6.38,2.77,-8.86
330,-45.88,275.81,56.25,7.12,2.75,-7.33
340,-44.63,267.56,49.88,7.63,3,-5.7
350,-33.25,261.5,42.69,7.99,3.47,-3.5
360,-18.87,257.75,40.5,8.64,3.32,-2.89
370,-11.25,273.94,44.56,8.81,2.85,-2.37
380,-17.37,284.44,46.25,9.59,2.34,-0.54
390,-27.5,218.81,42.13,9.83,2.21,4.18
400,-29.94,157,34.06,10.44,2.36,6.1
410,-19.56,94.62,27.5,10.38,2.5,6.86
420,-4.56,31.75,24,10.25,1.95,6.84
430,6.62,-27.12,15.75,10.2,1.7,6.52
440,13.44,-81.62,3.5,9.49,1.78,5.9
450,23.31,-128,-5.75,8.27,2.24,4.96
460,35.38,-174.5,-7.75,7.77,1.98,3.8
470,40.31,-221.56,-9.06,7.29,1.51,2.26
480,29.56,-269.5,-15.13,6.71,0.9,0.82
490,12.25,-325.31,-27.25,5.56,0.39,-2.04
500,5.19,-388.25,-43.38,4.7,0.46,-4.73
510,10.38,-453,-60.81,3.81,0.68,-8.28
520,17.81,-536.62,-79.56,1.24,1.78,-12.16
530,34.19,-647.19,-105.94,-0.04,2.88,-21.37
540,60.56,-581.69,-120.06,-1.68,3.13,-27.73
550,56.13,-501.44,-132.19,-1.45,3.79,-32.43
560,33.06,-401.75,-144.69,-2.76,7.84,-35.57
570,22.75,-295.37,-135.62,-4.11,9.62,-35.03
580,29.69,-222.31,-107.94,-5.07,10.56,-35.19
590,30,-180.44,-72.87,-5.4,9.57,-38.67
600,1.87,-153.69,-46.81,-5.59,8.94,-40.08
610,-42.31,-126.69,-33.13,-5.7,8.88,-40.63
620,-76.75,-96.94,-24.56,-5.62,9.22,-40.45
630,-84.69,-61.63,-16.56,-5.34,9.96,-40.48
640,-67.81,-9.63,-7.31,-5.21,10.54,-40.09
650,-35.69,59.44,7.06,-5.02,10.84,-38.97
660,-8.06,127,26.56,-4.3,9.49,-35.36
670,-3.94,179.69,40.19,-3.73,9.18,-32.95
680,-15,218.69,52.19,-3.36,8.98,-30.25
690,-28.5,240.87,67.87,-2.8,7.69,-26.34
700,-47.38,251.44,86.81,-1.88,6.46,-25.04
710,-73.69,251.25,98.87,-0.97,5.45,-24.05
720,-95.19,255.56,100.44,-0.11,5.03,-22.7
730,-96.81,273.31,100,0.59,4.54,-19.39
740,-82.06,294.94,99.69,1.28,4.24,-17.73
750,-67,309.44,98,2.29,3.88,-16.17
760,-57.88,315.06,92.44,3.27,3.74,-13.11
770,-49.44,318,84.94,4,3.83,-11.36
780,-39.69,317.44,81,4.87,3.75,-9.72
790,-31.12,308.75,77.62,5.94,3.48,-8.38
800,-25.37,297,69.81,7.5,3.35,-5.99
810,-17.81,286.69,56.94,8.24,3.69,-4.69
820,-7.12,283.25,42.44,8.45,4.21,-3.53
830,0.44,287.87,34.5,9.26,4.84,-1.9
840,3.62,301.19,31.44,9.34,4.93,-0.2
850,2.19,270.5,31.62,9.81,5.08,2.64
860,0.81,210.19,35.56,9.93,5.15,4.23
870,-4.19,159.31,42.88,10.74,4.34,6.1
880,-17.25,100.12,47.13,11.04,3.59,6.7
890,-24.94,42,39.81,11.07,3.1,7.18
900,-17.19,-10.69,27.69,11.03,2.63,8.2
910,6.37,-64.37,15.06,10.66,2.36,7.97
920,38.31,-116.25,2,10.12,2.3,7.08
930,65.12,-165,-11.69,9.33,2.6,5.92
940,77.62,-214,-20.75,7.69,3.15,3.47
950,75.31,-265.94,-24.81,6.72,3.06,2.04
960,66.56,-318.81,-28.37,5.69,3.04,0.76
970,61.75,-374,-30.62,3.54,2.4,-2.68
980,58.44,-434.62,-30.69,2.65,1.63,-5.91
990,45.63,-506.69,-33.25,1.7,0.71,-9.63
1000,24.37,-597.75,-47.19,-1.13,0.17,-14.07
1010,4.44,-719.75,-75.12,-2.28,0.71,-22.19
1020,1.44,-674.75,-107.56,-5.2,1.12,-27.87
1030,-12.38,-595.19,-137.31,-5.16,2.25,-31.53
1040,-25,-495.87,-160.94,-6.67,7.23,-33.67
1050,-12.94,-389.12,-148.37,-7.81,8.45,-33.78
1060,11.06,-303.12,-112.25,-8.04,8.19,-34.82
1070,12.94,-248.31,-81.06,-7.68,5.91,-39
1080,-15.88,-209.69,-74.81,-8.3,5.87,-40.18
1090,-38.44,-162.06,-88.87,-9.23,6.86,-40.51
1100,-26.37,-91.12,-103.87,-10.33,8.46,-39.95
1110,9.75,-18.12,-105.56,-11.82,12.21,-38.01
1120,37.63,32.69,-85,-11.56,12.95,-38.38
1130,31.81,65.81,-50.69,-10.67,12.98,-39.33
1140,0.25,106.44,-15.44,-9.32,12.17,-37.79
1150,-21.31,164.25,14,-8.7,11.54,-34.89
1160,-15.19,223.37,34.13,-8.09,11.17,-32.12
1170,-0.88,269.31,51.38,-7.44,10.67,-30.08
1180,-9.94,296.12,71.25,-6.6,9.25,-27.89
1190,-46.31,312.31,94.75,-5.61,8.16,-26.5
1200,-86.37,328.81,114.94,-4.6,7.22,-24.5
1210,-107.94,349.94,130.31,-2.82,5.47,-20.14
1220,-111.69,368.25,140.12,-1.51,4.75,-18
1230,-105.94,379.69,140.31,-0.28,4.42,-15.96
1240,-96.56,383.44,134.69,1.19,4.21,-12.45
1250,-86.87,382.19,127.37,2.27,4.19,-10.71
1260,-79.37,377,121.44,3.39,4.07,-9
1270,-74.44,369.75,115.06,4.39,3.92,-7.26
1280,-71.5,357.94,109,5.92,3.63,-4.45
1290,-68.69,350.12,103.69,6.71,3.39,-3.03
1300,-59.88,356.37,97.62,7.64,2.92,-1.9
1310,-45.69,349.94,90.37,8.64,2.69,2.28
1320,-25.31,284.5,84.31,9.1,2.49,3.57
1330,-3.31,231.19,76.12,10.17,1.91,4.85
1340,17.37,173.69,59,10.37,1.65,5.9
1350,35.38,114.25,43,10.98,1.1,6.15
1360,45.38,52.63,21.87,10.41,1.35,5.71
1370,40.44,-8.88,5,10.26,1.3,5.08
1380,20.87,-65.81,-10.81,9.32,1.94,4.25
1390,4.06,-115.75,-29.5,8.53,2.97,3.52
1400,-3.25,-161.94,-34.25,7.55,3.39,2.55
1410,0.25,-202.06,-28.19,7.2,3.18,1.24
1420,6.37,-242.25,-25.62,6.75,2.36,-1.45
1430,12.56,-287.06,-27.5,6.64,1.76,-3.52
1440,13.75,-332.31,-35.31,6.09,1.34,-5.86
1450,8.38,-379.19,-48.5,5.28,0.92,-9.88
1460,0.94,-440.87,-68.25,4.41,1.28,-10.64
1470,8.06,-513,-94.06,2.86,2.22,-13.68
1480,37.19,-455.5,-109.75,1.62,3.08,-20.45
1490,44.69,-387.25,-110.19,1.89,3.38,-22.09
1500,22.69,-343.25,-119.75,1.14,4.11,-23.01
1510,-13,-324.31,-131.69,0.46,4.93,-23.32
1520,-13,-324.31,-131.69,-0.19,7.42,-23.65
1530,-29.44,-316.12,-149.37,-1.27,8.7,-24.77
1540,38.44,-309.06,-193.12,-2.65,9.85,-26.82
1550,79.69,-312.31,-212.87,-6.06,12.84,-33.19
1560,95.12,-315.12,-224.62,-8.19,14.76,-36.91
1570,84.19,-295.94,-216.75,-10.26,16.62,-40.36
1580,50.63,-246,-177.56,-11.67,17.73,-43.31
1590,-1.69,-179.62,-115,-11.83,17.58,-46.51
1600,-61.5,-103.5,-51.88,-11.6,17.28,-46.13
1610,-99.87,-15.38,3.69,-11.37,17.22,-44.36
1620,-99.87,-15.38,3.69,-10.11,14.56,-37.36
1630,-90.44,86.12,57.31,-8.86,12.48,-34.15
1640,-20.06,247.06,129.06,-7.61,10.78,-31.2
1650,-25.81,287.75,144.69,-6.51,9.33,-28.14
1660,-50.31,297.81,153.06,-4.52,7.16,-23.16
1670,-50.31,297.81,153.06,-3.38,6.48,-21.22
1680,-75.25,293.12,153.81,-2.15,6,-19.53
1690,-96.37,266.06,142.37,-0.46,5.36,-17.54
1700,-90.94,254.5,129.19,0.03,5.52,-16.82
1710,-81.12,250.62,116.31,0.67,5.77,-16
1720,-81.12,250.62,116.31,1.51,6.3,-14.3
1730,-72.31,251.12,107.37,1.95,6.7,-13.37
1740,-57.31,251.19,98.37,2.47,6.9,-12.32
1750,-48.06,254.5,102.06,3.04,6.78,-11.15
1760,-40.56,257.81,109.06,3.88,6.07,-9.11
1770,-40.56,257.81,109.06,4.2,5.56,-8.13
1780,-36.88,258.75,116.75,6.2,4.84,-6.46
1790,-21,264.5,118.44,6.82,3.7,-4.17
1800,-4.19,262.06,117.81,7.37,2.82,-3.24
1810,3.37,263.94,111.62,7.87,2.05,-3
1820,3.37,263.94,111.62,8.99,1.34,-2.29
1830,-3.62,278.25,99.19,9.25,1.64,1.98
1840,-31.12,177.94,55.69,9.22,2.06,3.58
1850,-25.44,124.31,37.13,9.1,2.41,4.64
1860,-11,64.12,23,8.59,2.88,4.91
1870,-11,64.12,23,8.59,2.88,4.91
1880,3.69,2,16,8.33,2.67,4.4
1890,23.5,-96.19,5.06,7.91,1.82,3.03
1900,32.19,-136.5,-5.56,7.09,1.44,1.38
1910,38.63,-173.19,-16.06,6.65,1.08,0.29
1920,38.63,-173.19,-16.06,6.65,1.08,0.29
1930,39.06,-212.5,-27.87,6.2,0.8,-0.97
1940,17.56,-306.75,-58.25,5.11,0.86,-6.52
1950,1.69,-352.44,-76.5,4.55,1.29,-8.73
1960,-9,-397.56,-95.75,3.45,2.48,-10.68
1970,-9,-397.56,-95.75,3.45,2.48,-10.68
1980,-10.38,-469.06,-119.69,1.48,3.87,-12.97
1990,40.88,-404.5,-150.94,-0.2,5.55,-19.85
2000,40.88,-404.5,-150.94,-0.83,7.54,-21.02
2010,45.75,-351.62,-152.69,-1.72,8.28,-21.22
2020,32.44,-328.81,-153.94,-1.72,8.28,-21.22
2030,13.44,-334.69,-156.87,-2.82,9.04,-21.84
2040,5.06,-365.19,-165.19,-5.89,9.71,-30.29
2050,5.06,-396.12,-170.56,-7.57,10.21,-34.04
2060,0.19,-411.5,-184.81,-9.68,11.9,-37.16
2070,-5.94,-389.69,-213.25,-9.68,11.9,-37.16
2080,-0.19,-322.94,-229.87,-12.99,16.23,-40.69
2090,16.87,-233.37,-220.37,-15.28,18.96,-41.04
2100,31.19,-150.37,-189.19,-15.55,19.94,-41.52
2110,31.87,-83.12,-141.87,-15.11,19.59,-41.54
2120,16.56,-26.5,-83.75,-15.11,19.59,-41.54
2130,-6.81,38.44,-22.25,-14.45,18.76,-40.59
2140,-25.5,114.31,35.38,-12.12,13.94,-31.56
2150,-31.5,189.31,83.12,-11.04,12.35,-28.71
2160,-31.25,251.06,118.5,-9.87,10.98,-26.14
2170,-36.94,290.69,142.25,-9.87,10.98,-26.14
2180,-47.94,310.94,159,-7.8,8.27,-22.28
2190,-63,318,168.31,-5.13,6.51,-19.29
2200,-78.69,318.81,170.94,-3.97,5.99,-17.8
2210,-90.12,315.12,168.06,-2.22,5.64,-15.11
2220,-92.06,310.81,159.81,-2.22,5.64,-15.11
2230,-81.56,309.75,145.87,-1.32,6.02,-13.78
2240,-60.5,309.06,134.81,0.37,6.18,-11.72
2250,-37.13,306.56,130.87,1.24,5.88,-10.95
2260,-22.12,306.75,132.06,2.09,5.39,-9.82
2270,-19.19,311.56,135.94,2.09,5.39,-9.82
2280,-24.12,316.56,140.5,3.19,4.41,-7.34
2290,-30.06,316.69,143.12,5.23,2.93,-4.02
2300,-29.69,315.56,138.12,6.55,2.57,-2.74
2310,-14.75,311.44,126.75,7.41,1.4,-1.78
2320,3.87,318.69,115.62,7.41,1.4,-1.78
2330,13.31,331.62,94.62,7.87,1.6,1.31
2340,10.44,261.62,70.81,7.66,2.8,4.77
2350,4.62,199.94,52.25,7.87,2.66,5.57
2360,-4.31,136.5,42.31,8,2.22,5.71
2370,-12,64,37.31,8,2.22,5.71
2380,-15.75,-11.56,30.62,8.16,1.64,5.34
2390,-12.38,-81.25,17.87,7.26,0.9,1.62
2400,-1.19,-136.44,0.81,6.69,1.02,0.44
2410,19.25,-170.69,-15.75,6.03,0.99,-1.67
2420,44.63,-193.62,-28.44,6.03,0.99,-1.67
2430,63.19,-217.19,-36.44,5.71,0.67,-2.96
2440,66.87,-249.5,-45.94,4.45,0.68,-5.66
2450,59.81,-286,-61.06,3.54,1.24,-8.34
2460,49.19,-325.62,-79.5,2.69,1.71,-10.25
2470,35.31,-372.56,-99.75,2.69,1.71,-10.25
2480,18.44,-425.19,-122.69,1.44,2.52,-11.58
2490,5.44,-500.81,-146.12,-2.52,5.5,-19.96
2500,6.81,-536.75,-164.75,-3.67,6.19,-22.3
2510,-3.69,-488.56,-172.25,-5.09,8.45,-25.67
2520,-27.75,-459.94,-182.56,-5.09,8.45,-25.67
2530,-41.69,-437.12,-196.25,-6.1,9.57,-26.91
2540,-32.63,-403.87,-203.69,-8.59,11.24,-30.07
2550,-0.94,-367.81,-211.62,-10.99,13.72,-34.56
2560,38.94,-332.81,-227.25,-10.99,13.72,-34.56
2570,73.06,-296.25,-245.62,-12.74,15.65,-36.65
2580,95.94,-254,-249.56,-14.67,17.68,-38.76
2590,107.62,-193.12,-223.19,-17.1,20.34,-41.79
2600,100.56,-115.69,-165.25,-17.99,20.1,-42.29
2610,67.31,-46.31,-84.06,-17.83,18.64,-42.79
2620,6.62,11.31,-0.44,-16.94,16.55,-42.7
2630,-59.56,69.5,61.13,-15.24,13.37,-37.71
2640,-88.37,125.06,108.56,-13.95,11.22,-35.6
2650,-80,176.87,142.31,-12.33,9.29,-33.86
2660,-62.38,230.75,156.44,-10.27,6.68,-29.01
2670,-44.06,279.37,152,-9.35,6.41,-26.38
2680,-21,317.62,141.19,-8.45,6.24,-24.06
2690,0.37,341.37,132.56,-7.47,5.97,-22.18
2700,8.13,348.19,124.12,-5.83,5.6,-19.57
2710,-2.75,339.56,114.87,-4.96,5.61,-18.63
2720,-28.06,324.25,107.12,-4.07,5.77,-17.73
2730,-57.44,307.69,104.12,-2.76,5.88,-15.88
2740,-81.56,290.44,105.69,-1.89,5.83,-15.18
2750,-97.5,279.5,108.5,-1.15,5.81,-14.41
2760,-102.94,279.87,111.12,-0.48,5.85,-13.56
2770,-102.37,291.56,113.06,0.44,5.38,-11.77
2780,-110.87,306.31,113.75,1.11,5.29,-10.15
2790,-126.69,313.75,118,2.35,5.28,-8.1
2800,-133,311.62,117.62,3.18,5.41,-4.11
2810,-113.25,303.62,125.62,4.27,4.82,-2.62
2820,-80.31,301.62,137.5,5.32,3.98,-2.13
2830,-53.5,312.06,138.5,7.19,2.81,0.29
2840,-43.25,284.31,130.56,7.38,2.9,1.71
2850,-38.94,212.31,113.44,7.91,2.88,2.85
2860,-35.88,156.37,98.56,8.35,2.58,3.46
2870,-37.88,95.81,84.06,9.32,1.68,3.57
2880,-41.25,35.88,65.62,9.45,1.25,3.29
2890,-39.69,-12.94,44.63,9.51,1.01,3.06
2900,-26.87,-46.81,20.62,8.8,1.38,2.87
2910,-2.44,-70.62,-0.31,8.32,1.59,2.75
2920,22.62,-95.81,-17.37,8.11,1.78,2.59
2930,40.81,-127.62,-31.56,7.62,1.79,2.27
2940,50.56,-169.25,-47.69,6.23,2.44,1.07
2950,53.88,-221.19,-65.25,5.24,2.88,-0.48
2960,51.94,-275.44,-80.19,4.53,3.27,-2.46
2970,40.13,-331.87,-93,3.32,3.68,-7.73
2980,13.5,-385.62,-107.25,3.21,3.94,-10.53
2990,-27.19,-447,-123.81,2.57,4.41,-11.96
3000,-64.62,-547.56,-151.56,-0.32,6.84,-19.19
3010,-68.69,-551.31,-176.75,-2.26,7.93,-23.19
3020,-64.31,-482.5,-187.37,-2.28,9.1,-25.97
3030,-58.31,-414.12,-196.75,-3.14,10.79,-28.12
3040,-46.38,-323.31,-200,-3.79,13.9,-28.07
3050,-29.56,-241.75,-193,-4.95,15.31,-27.1
3060,-4.31,-191.06,-179.19,-5.63,16.34,-26.45
3070,22.12,-170.81,-160.69,-6.36,16.84,-28.84
3080,36.75,-174.5,-146.56,-7.01,16.97,-31.34
3090,34,-184.25,-143.87,-8.11,17.67,-33.86
3100,18.25,-181.94,-143.87,-9.12,18.87,-36.01
3110,1.75,-154.69,-133.12,-10.44,21.1,-38.85
3120,-8.31,-103.5,-107.37,-10.66,21.65,-39.35
3130,-7.87,-36.81,-69.81,-10.7,21.79,-39.02
3140,5.25,37,-29,-10.55,21.07,-36.24
3150,32.31,113.12,12.75,-10.03,19.9,-34.14
3160,60.75,184.87,52.75,-9.5,18.24,-31.77
3170,71.69,243.56,86.94,-8.97,16.64,-29.2
3180,59.69,272.12,116.87,-7.55,13.49,-25.59
3190,30.62,280.31,141.87,-6.51,11.93,-24.45
3200,-6.06,285.19,159.94,-5.43,10.5,-23.09
3210,-38.5,291.94,170.69,-3.82,8.35,-19.81
3220,-56.75,298.94,175.5,-2.64,7.55,-18.3
3230,-60.56,306.12,175.12,-1.52,6.91,-16.88
3240,-57.13,313.25,169,-0.58,6.48,-15.34
3250,-48.63,319.69,159,0.47,6.16,-12.29
3260,-35.69,322.94,150.19,1.32,6,-10.76
3270,-22.5,320.19,143.06,2.37,5.73,-9.45
3280,-14.75,308.31,136.31,3.83,5.21,-7.58
3290,-14.5,286.69,129.44,3.65,4.91,-6.78
3300,-15.81,264.87,121.75,5.8,4.4,-5.6
3310,-6.37,249.25,108.44,6.79,4.14,-4.07
3320,19.5,241.94,102.94,6.96,3.44,-3.48
3330,41.88,237.12,96.75,7.59,3.22,-3.04
3340,46.75,234.19,86.37,8.06,3.01,-3.04
3350,30.12,253.81,78.94,8.19,2.46,-0.62
3360,1.56,250.37,69.25,8.11,2.84,2.05
3370,-12.88,176.75,55.63,8.18,3.11,3.66
3380,-9.38,116.87,53.38,8.47,2.26,4.43
3390,-2.56,53.31,56.5,8.85,1.23,3.82
3400,-2.81,-12.81,53.38,9.19,0.13,2.68
3410,-8.06,-67.56,40.19,9.18,-0.71,1.64
3420,-11.31,-105.44,18.69,8.79,-1.47,0.7
3430,-3.94,-130.5,-5.87,8.39,-1.48,0.52
3440,14.88,-156.25,-29.87,7.98,-1.32,-0.24
3450,35.25,-191.87,-51.31,7.05,-0.49,-3.48
3460,46.38,-230.25,-72.31,6.27,0.25,-5.26
3470,49.5,-260.5,-90.56,5.64,1.03,-6.71
3480,49.63,-281.44,-105.56,4.71,1.95,-8.04
3490,47.13,-300.81,-114.75,3.69,3.15,-9.78
3500,44.38,-329.25,-121.25,2.93,3.56,-10.79
3510,39.44,-379.81,-128.19,2.07,3.61,-11.88
3520,29.06,-460.06,-138.31,1.49,3.62,-20.16
3530,16.25,-467.56,-158,0.77,4.48,-23.38
3540,3.06,-439.5,-201.37,-0.37,6.98,-25.18
3550,22.56,-382.31,-252,-3.85,13.82,-25.4
3560,83,-314.62,-270.81,-5.47,16.08,-26.06
3570,161.06,-268.37,-250.12,-6.87,16.89,-28.29
3580,211.81,-252.31,-205.25,-7.7,16.55,-31.96
3590,200.87,-256.75,-151.94,-8.51,14.62,-40.26
3600,127.69,-256.81,-103.31,-8.92,13.7,-43.06
3610,25.31,-233.69,-60.88,-8.94,12.82,-44.7
3620,-65.06,-186.56,-26.06,-8,11.91,-45.3
3630,-115.87,-120.62,-3.25,-7.68,12.17,-44.18
3640,-114.94,-35.88,9.38,-7.35,12.64,-42.09
3650,-65.5,61.63,18.62,-7.2,12.88,-39.25
3660,4.31,150.06,27.12,-7.12,12.46,-33.94
3670,47.06,209.75,36.69,-6.91,12.13,-32.17
3680,37.69,241.12,52.38,-6.7,11.83,-30.34
3690,-7,250.25,74.56,-6.1,10.35,-26.42
3700,-56.31,251.5,104.69,-4.91,8.91,-24.9
3710,-96.56,246.94,131.37,-3.47,7.47,-23.74
3720,-124.56,240.19,141.81,-2.33,6.68,-22.7
3730,-133,241.31,137.37,-1.42,6.4,-20.52
3740,-118.56,253.5,128.12,-0.84,6.67,-19.51
3750,-92.81,271.69,121.37,-0.36,6.93,-18.62
3760,-72.37,291.19,118,0.03,7.21,-16.56
3770,-65,307.87,118.75,0.57,7.2,-15.12
3780,-66.69,320.69,123.56,1.16,7.04,-13.38
3790,-68.31,329.44,129.25,2.15,6.35,-10.23
3800,-63.88,330.56,133.94,3.09,5.95,-8.96
3810,-56.19,323.69,136.06,4.06,5.36,-8
3820,-47.5,316.81,137.06,4.75,4.59,-6.88
3830,-33.38,318,128.75,5.83,4.67,-3.71
3840,-2.56,327.62,111.56,6.28,4.88,-2.3
3850,27.87,338.44,107.19,6.65,4.61,-1.85
3860,37.5,353.87,107.87,7.38,3.75,0.35
3870,15,343.19,109.94,7.48,3.75,2.38
3880,-18.5,275.37,107.19,7.59,3.47,4.42
3890,-47.13,224.31,109.5,8.01,2.72,6.09
3900,-67.87,163.37,114.69,9.4,0.37,8.26
3910,-76.75,89.31,112.31,10.08,-1.05,8.64
3920,-69.5,13.69,98.81,10.58,-2.33,8.47
3930,-47.13,-56.5,73.31,10.69,-3.68,6.76
3940,-14.63,-117.12,37.75,10.15,-3.5,5.04
3950,15.69,-164.56,0.5,9.28,-2.74,3.15
3960,31.44,-203.94,-28.5,8.62,-2.02,1.36
3970,30.44,-240.25,-44.94,7.9,-1.4,-1.15
3980,17.81,-277.69,-58.06,7.65,-1.19,-2.48
3990,2.25,-318.5,-72.06,7.2,-0.78,-4.03
4000,-9.19,-361.87,-88.25,6.29,0.12,-7.13
4010,-12.5,-404.62,-104.5,5.29,0.69,-8.91
4020,-10.31,-459.69,-120.94,4.12,1.27,-10.02
4030,-1.75,-545.12,-140.31,2.07,2.42,-17.75
4040,19.44,-529.31,-158.56,1.54,2.81,-21.2
4050,20.06,-477.19,-173.44,1.52,3.71,-23.63
4060,1.31,-442.12,-204.81,0.31,5.92,-25.46
4070,-20.25,-413.25,-235.37,-1.77,10.76,-26.89
4080,-19.12,-380.62,-256.37,-3.34,13.13,-27.91
4090,15.81,-349.94,-261.62,-4.68,14.84,-29.89
4100,65.37,-318.19,-247.31,-6.35,16.2,-35.6
4110,99.69,-282.06,-222.56,-7.03,16.42,-38.71
4120,97.31,-243.25,-196.25,-7.74,16.85,-40.99
4130,63.56,-191.12,-168.94,-8.04,17.43,-42.29
4140,23.19,-124.31,-136.94,-8.68,18.72,-40.98
4150,0.81,-45.75,-97,-8.85,18.61,-39.04
4160,2.37,25.94,-48.13,-8.74,17.71,-37.5
4170,8.44,77.12,-0.88,-8.05,14.98,-35.77
4180,8.44,77.12,-0.88,-7.44,13.49,-35.2
4190,-37.38,135.56,74.94,-6.82,11.78,-34.08
4200,-75.56,166.44,105.94,-6.05,10.35,-31.88
4210,-98.06,201.25,128.75,-4.7,7.73,-27.43
4220,-98.62,230,143.94,-3.72,6.59,-25.98
4230,-92.75,252.5,149.75,-2.7,5.68,-24.52
4240,-88.87,270.5,144.69,-1.62,5.18,-20.97
4250,-80,283.19,133.5,-1.05,5.3,-19.49
4260,-62.25,293,124,-0.32,5.32,-18.16
4270,-43.06,302.19,118.31,0.45,4.82,-16.22
4280,-43.06,302.19,118.31,1.29,4.55,-15.18
4290,-29.37,318.94,113.69,2.04,4.22,-14.02
4300,-34.38,326.62,112.5,2.93,3.9,-12.48
4310,-39.81,334.56,108.31,3.96,3.65,-8.97
4320,-39.94,337.62,101.87,4.28,3.47,-7.38
4330,-39.94,337.62,101.87,5.9,3.09,-5.29
4340,-33.5,335.19,95.94,7.01,3.01,-3.2
4350,12.06,321.31,75.44,7.48,2.52,-2.78
4360,26.06,312.75,64.56,8.02,2.4,-2.73
4370,20.12,324.87,48.25,8.34,2.37,-1.09
4380,20.12,324.87,48.25,8.55,3.57,3.18
4390,-2.12,291.69,33.5,8.43,3.81,4.56
4400,-26.06,165.12,14.94,8.81,3.88,5.67
4410,-22.87,106.44,10.81,8.98,3.86,6.17
4420,-10.69,44.06,4.19,8.96,3.88,5.87
4430,-10.69,44.06,4.19,8.72,3.92,5.15
4440,6.81,-11.25,-3.94,8.37,3.88,4.29
4450,40.63,-96.06,-18,8.04,3.96,3
4460,51.44,-128.37,-23.12,7.61,3.92,2.19
4470,58.06,-161.44,-28.19,7.14,3.83,1.43
4480,58.06,-161.44,-28.19,7.14,3.83,1.43
4490,62.13,-194.75,-33.13,5.67,3.29,-0.93
4500,68.12,-267.62,-45.75,5.45,3.04,-2.46
4510,63.5,-313.37,-60.19,3.62,3.88,-5.91
4520,54.44,-358.19,-79.56,2.98,4.47,-7.64
4530,54.44,-358.19,-79.56,2.98,4.47,-7.64
4540,48.13,-399.81,-95.25,2.46,4.79,-9.7
4550,42.13,-564.62,-121.87,-1.7,6.18,-18.71
4560,57.88,-598.75,-130.56,-3.27,6.06,-22.81
4570,65.94,-542.12,-133.44,-3.18,6.01,-25.62
4580,65.94,-542.12,-133.44,-3.18,6.01,-25.62
4590,61.81,-496.69,-145.69,-4.8,7.58,-30.11
4600,54.56,-398.06,-158.19,-7.74,8.75,-33.55
4610,56.13,-352.62,-150.5,-9.02,8.96,-35.64
4620,52.13,-315.94,-139.37,-10.19,9.05,-40.28
4630,52.13,-315.94,-139.37,-10.19,9.05,-40.28
4640,34.56,-281.25,-131.31,-11.2,9.48,-42.06
4650,-21.94,-182.06,-121.75,-12.86,13.01,-43.3
4660,-35.31,-120.87,-104.06,-12.9,13.85,-42.95
4670,-32.44,-51.13,-76.75,-12.72,14.57,-42.08
4680,-32.44,-51.13,-76.75,-12.72,14.57,-42.08
4690,-17.12,31.19,-44.88,-12.38,14.85,-40.21
4700,22.25,182.94,26.44,-10.96,12.49,-33.44
4710,17.19,230.25,53.63,-10.43,11.51,-31.59
4720,17.19,230.25,53.63,-9.44,10.21,-27.56
4730,-9.94,259.94,76,-9.44,10.21,-27.56
4740,-43.38,280.19,97.75,-8.6,9.29,-25.91
4750,-72.19,294.31,121,-6.12,7.27,-23.38
4760,-97.37,302.44,141.31,-4.58,5.71,-20.76
4770,-117.44,309.06,153.56,-3.65,5.43,-18.94
4780,-125.69,323.44,157.44,-3.65,5.43,-18.94
4790,-119.56,344.37,156.62,-2.74,5.23,-17.13
4800,-103.25,362.94,154.25,-0.22,4.78,-12.07
4810,-84.94,377.5,149.31,1.01,4.81,-10.53
4820,-66.81,384.19,141.5,2.37,4.91,-8.39
4830,-49.88,384.94,135.69,2.37,4.91,-8.39
4840,-35.56,384.19,133.81,3.18,4.66,-7.32
4850,-22,382.75,127.94,5.68,3.98,-4.67
4860,-14.31,378.87,122.06,5.84,4.92,-2.22
4870,-1.37,375.06,110,6.92,3.67,-1.96
4880,26.94,374.87,114.25,6.92,3.67,-1.96
4890,49.31,383.44,117.19,6.99,2.49,-1.72
4900,42.88,385.87,107.37,8.36,1.97,4.11
4910,21.12,316.62,90,8.39,1.84,5.5
4920,-1.12,259.69,73.25,8.93,1.66,6.96
4930,-22.75,196.44,61.69,8.93,1.66,6.96
4940,-36.88,125.19,51.81,9.4,1,7.99
4950,-38.69,45.56,40.19,9.29,0.72,7.11
4960,-29.37,-29.44,24.12,8.46,0.89,5.03
4970,-9.56,-93.87,7,7.79,1.39,3.63
4980,17.69,-145.56,-6.75,7.79,1.39,3.63
4990,46.5,-183.44,-16.94,6.97,1.7,2.24
5000,68.56,-212.44,-18.37,5.99,0.86,-1.16
5010,76.37,-242.87,-14.69,5.32,0.8,-2.55
5020,69.44,-282.62,-14.19,4.93,0.76,-4.05
5030,55.81,-327.69,-19.75,4.93,0.76,-4.05
5040,41.38,-379.87,-26.81,4.23,0.28,-8.02
5050,22,-441.56,-41.81,2.16,0.75,-12.06
5060,-2.5,-507.62,-60.88,1.11,1.9,-18.84
5070,-27.06,-603.44,-84.19,-1.31,2.34,-22.27
5080,-35.38,-632.5,-112.5,-1.31,2.34,-22.27
5090,-42.56,-569.56,-141.37,-1.12,3.42,-24.5
5100,-47.56,-512.37,-176.69,-4.47,8.7,-27.51
5110,-35.31,-457.75,-209.75,-6.45,10.05,-29.22
5120,2.94,-409.25,-232.25,-8.43,11.1,-32.14
5130,49.63,-382.25,-243.25,-8.43,11.1,-32.14
5140,83.87,-379.75,-247.25,-11.61,13.18,-39.86
5150,90.19,-375.81,-242.69,-14.29,15.45,-47.08
5160,65.44,-344.87,-224.25,-14.96,16.45,-48.06
5170,13.19,-283.37,-188.94,-15.26,17.89,-47.54
5180,-45.63,-200.12,-141.06,-15.26,17.89,-47.54
5190,-83.75,-99.75,-83.87,-15.11,17.93,-45.21
5200,-81.62,4,-25.19,-12.85,14.34,-37.04
5210,-40.81,104.81,24.69,-12.16,13.48,-33.81
5220,-1.31,192.25,59.88,-11.56,12.55,-30.54
5230,-2.19,257.06,85,-11.56,12.55,-30.54
5240,-31.81,295.44,114.06,-10.59,11.31,-27.81
5250,-70.44,304.19,144.25,-8.59,8.36,-24.37
5260,-108.81,301,169.44,-7.29,7.13,-23.17
5270,-139.31,294.12,184.12,-6.03,6.24,-22.07
5280,-153,293.62,187.87,-4.71,5.4,-19.52
5290,-146.44,305.87,183.75,-3.9,5.36,-18.01
5300,-122.75,325.5,178.62,-2.93,5.16,-16.6
5310,-93.56,347.31,174.44,-1.77,4.85,-13.86
5320,-71,365,169,-0.99,4.72,-12.3
5330,-57.25,375.19,164.56,-0.04,4.36,-10.74
5340,-45.31,362.25,158.62,1.05,3.89,-9.43
5350,-45.31,362.25,158.62,2.94,3.12,-7.42
5360,-41.13,347.62,150.06,3.83,3.02,-6.07
5370,-29.44,336.69,135.81,4.08,2.98,-4.85
5380,-7.75,331.25,119.87,5.16,3.06,-2.31
5390,47.56,334,95.62,6.43,2.85,-1.96
5400,47.56,334,95.62,7.08,2.09,-1.91
5410,45.75,324.19,75.94,7.49,1.67,-0.02
5420,45.75,324.19,75.94,8.16,2.02,2.9
5430,26,266.31,54.88,8.22,2.4,4.73
5440,-5.5,167.56,34.25,8.74,2.66,6.42
5450,-5.5,167.56,34.25,8.92,2.9,8.56
5460,-11.31,94.5,28.25,8.9,2.86,9
5470,8.38,-49.25,15.88,8.89,2.66,8.75
5480,30.44,-110.62,6.75,8.86,2.38,7.87
5490,52.44,-159.94,-5.19,8.29,1.94,4.89
5500,52.44,-159.94,-5.19,7.8,1.9,3.32
5510,63.94,-236.87,-31.5,7.17,1.88,2.09
5520,57.06,-278,-43,6.08,2.05,0
5530,45.63,-325.37,-52.31,5.28,1.99,-1.51
5540,33.75,-379.12,-64.31,4.69,1.85,-3.26
5550,26.19,-436.62,-81.56,3.22,2.32,-7.18
5560,23.81,-494.19,-97.44,1.92,2.61,-9.68
5570,23.62,-571.75,-109.75,0.44,2.86,-11.36
5580,30.06,-664.81,-118.75,-1.91,3.46,-12.82
5590,35.5,-633.5,-123.87,-4.4,3.18,-23.25
5600,23.19,-603.75,-143.12,-4.5,3.16,-27.12
5610,11.19,-542.62,-178.56,-5.35,3.74,-30.15
5620,10.94,-456.37,-209.94,-5.88,5.74,-33.42
5630,24.25,-369.69,-235.37,-7.3,6.91,-33.95
5640,47.13,-315,-256.56,-8.98,8.16,-34.76
5650,75.31,-287.44,-277.5,-11.27,9.84,-36.34
5660,103.44,-263.19,-284.06,-16.42,14.14,-41.93
5670,115.81,-216.31,-255.75,-18.74,15.81,-45.08
5680,89.12,-151.75,-186.56,-19.5,16.5,-47.77
5690,15.44,-73.81,-99.25,-18.77,15.94,-47.95
5700,-72.31,18.56,-11.94,-17.58,15.35,-47.78
5710,-121.19,116.37,60.13,-16.39,14.4,-44.78
5720,-117.25,203.5,108.31,-15,12.86,-40.22
5730,-94.37,268.69,133.62,-13.01,9.74,-32.98
5740,-80.31,316.12,150.12,-11.81,8.82,-30.29
5750,-83.69,344.94,166,-10.59,7.8,-28.03
5760,-100.12,365.44,179.94,-8.67,6.04,-23.43
5770,-114.75,379.37,190.37,-7.38,5.37,-21.12
5780,-124.19,383,197.62,-5.79,4.63,-19.12
5790,-130.5,379.75,198.31,-3.3,3.11,-16.07
5800,-132.62,376,190.25,-1.83,2.72,-14.5
5810,-125.56,373.75,174.37,-0.56,2.61,-12.75
5820,-106.75,371.69,155.87,0.64,2.69,-10.98
5830,-80.81,369,135.56,2.33,3.04,-8.09
5840,-53.44,361.62,115.31,3.39,3.37,-6.59
5850,-29.31,351,97.5,4.35,3.71,-5.29
5860,-11.25,341.31,84.62,5.46,4.43,-3.26
5870,8.56,338.37,71.37,6.06,4.35,-1.98
5880,36.31,352,65.31,5.85,4.69,-1.57
5890,53.69,361.25,68.94,7.02,4.1,-0.52
5900,54.75,302.31,58.63,7.75,3.25,1.82
5910,40.94,262.06,45.69,8.6,3.4,3.22
5920,10.94,199.06,38.94,8.75,3.22,4.51
5930,-15.56,123.75,25.81,9.04,3.74,6.18
5940,-27.56,50,15.38,8.71,3.97,6.55
5950,-20.75,-14.31,7.94,8.61,4.13,6.49
5960,1.81,-66.31,3.37,8.51,4.19,5.93
5970,33.31,-104.56,0.62,7.98,4.1,3.94
5980,66.19,-131.12,-0.19,7.68,3.97,2.8
5990,92.62,-154.62,-0.56,7.36,3.69,1.75
6000,106.19,-180.69,-1.37,6.48,3.07,0.19
6010,102.12,-215.87,-1,6.11,2.52,-0.61
6020,83.62,-264,-3.37,5.53,2.03,-1.7
6030,58.81,-316.87,-8.25,5.22,1.08,-4.88
6040,28.37,-368.25,-18.06,4.87,0.66,-6.75
6050,3,-415.75,-33.81,3.99,0.45,-8.58
6060,-7.25,-460.06,-56.63,3.02,0.51,-10.21
6070,2.62,-523.31,-79.69,0.4,1.66,-11.29
6080,32.63,-571.69,-100.87,-1.69,2.38,-14.9
6090,57.31,-537.44,-110,-3.03,2.33,-18.44
6100,49.44,-546.44,-125.81,-3.23,1.52,-26.69
6110,12,-561.31,-166.31,-5.13,2.38,-31.37
6120,-30.31,-540.75,-223.31,-7.74,4.83,-35.2
6130,-39.25,-468.12,-263.94,-10.12,8.06,-37.71
6140,-4.31,-360.75,-269.19,-14.82,13.69,-40.36
6150,43.19,-267.12,-239.12,-16.77,14.85,-41.26
6160,58.81,-210.37,-192.37,-17.83,15.1,-43.08
6170,29.75,-171.25,-147.44,-18.01,15.98,-46.81
6180,-18.81,-122.31,-100.12,-17.93,16.64,-47.48
6190,-53.44,-46.69,-45.25,-17.25,16.86,-47.07
6200,-61.69,54.5,11.81,-16.15,16.49,-45.41
6210,-55.88,154.75,60.56,-14.47,13.36,-38.6
6220,-60.13,227.62,92.69,-13.44,11.96,-34.8
6230,-74.12,278.06,117.25,-12.37,10.96,-31.29
6240,-90.12,302.81,140.62,-10.63,8.48,-25.7
6250,-104.75,309.81,157.94,-9.12,7.33,-23.99
6260,-116.94,313.56,163.62,-7.64,6.46,-22.34
6270,-122.25,317.56,159.19,-6.12,5.81,-19.09
6280,-118.37,320.31,152.5,-5.04,5.87,-17.55
6290,-105.87,325,145.19,-4.04,6.04,-16.26
6300,-91.5,328.81,139,-2.97,6.12,-15.04
6310,-79.75,330.25,134.69,-1.74,6.11,-13.03
6320,-70.94,330.69,130.94,-0.88,6.22,-11.74
6330,-61.63,329.31,129.44,-0.09,6.27,-10.34
6340,-51.06,322.25,130.37,1.22,5.97,-8.16
6350,-40.13,311.5,132.37,1.71,5.74,-7.21
6360,-25.37,304.25,129.56,3.38,5.07,-5.79
6370,-2.12,299.31,127.62,3.69,4.95,-4.85
6380,22.56,304.5,128.12,5.55,3.53,-3.61
6390,28.06,305.81,122.69,6.19,2.8,-3.52
6400,9.63,321,113.12,7.27,2.1,-3.21
6410,-21.06,307.69,96.37,7.75,1.82,0.78
6420,-42.06,242.69,76.5,8.22,2.25,2.5
6430,-43.19,195.87,62.25,8.13,2.57,4.13
6440,-29.19,145.5,53.69,8.39,2.72,5.39
6450,-7.75,85.87,47.94,8.58,2.39,6.39
6460,17.62,26.25,42.13,9.06,2.1,6.47
6470,42.44,-32.38,34.69,9.06,1.59,6.19
6480,65.31,-87.5,22.75,9.09,0.57,4.63
6490,81.19,-142.06,7.44,8.96,0.18,3.02
6500,87.25,-188.75,-11.63,8.43,0.1,1.05
6510,82.87,-224.37,-29.81,7.74,0.12,-0.7
6520,73.62,-256.19,-48.44,6.74,0.84,-2.45
6530,66.06,-291.5,-64.94,5.48,1.43,-3.62
6540,56.19,-333.5,-73.44,4.72,1.7,-5.06
6550,39.75,-387.69,-81.75,3.57,1.91,-8.49
6560,23.44,-447,-96.06,2.73,2.14,-10.74
6570,6.87,-533,-114.44,1.11,2.68,-12.23
6580,1.94,-624.25,-128.06,-1.3,4.39,-19.07
6590,9,-572.5,-134.81,-3.98,4.47,-23.23
6600,-1.31,-520.12,-145,-3.57,5.05,-26.36
6610,-20.44,-459.87,-157.75,-4.31,5.72,-28.65
6620,-32.56,-392.31,-168.94,-5.4,7.91,-30.7
6630,-21.62,-330.31,-175.5,-6.2,9.05,-31.03
6640,19.56,-274.25,-182.44,-7.23,10.25,-31.95
6650,71.12,-214.69,-181.31,-8.16,11.98,-34.14
6660,105.5,-158.56,-172.12,-9.12,12.55,-34.88
6670,106.94,-116.19,-156.81,-10.01,13.17,-35.21
6680,77.37,-96.87,-134.31,-11.06,13.82,-35.38
6690,28.25,-96.62,-103.19,-12.87,14.42,-36.71
6700,-30.69,-106.94,-67.12,-13.06,14.01,-38.02
6710,-85.37,-109.37,-37.5,-13.03,13.68,-39.39
6720,-112.44,-76.19,-17.06,-12.66,14.21,-40.98
6730,-101,4.31,2.5,-12.69,14.66,-40.58
6740,-62.63,113.12,29.75,-12.67,14.79,-38.81
6750,-25.87,213,61.56,-12.28,13.98,-35.55
6760,-19.81,282.25,87.44,-11.36,11.6,-29.5
6770,-40.56,318.31,111.5,-10.67,10.61,-26.41
6780,-64.69,328.5,134.31,-9.44,9.51,-23.96
6790,-88.06,324.87,150.19,-7.18,7.18,-20.72
6800,-113.19,311.25,155,-5.71,6.47,-19.44
6810,-132.75,294.44,149.37,-4.53,6.31,-18.09
6820,-135.12,284.37,141.5,-3.18,6.55,-15.98
6830,-121.81,282.81,135.44,-2.46,6.76,-15.15
6840,-121.81,282.81,135.44,-1.7,7.01,-14.49
6850,-84.19,286.69,129.19,-0.88,7.13,-13.95
6860,-69.69,294.87,128.37,-0.15,7.25,-12.38
6870,-54.94,306.75,130.06,0.49,7.33,-11.03
6880,-37.88,318.25,137.37,1.26,7.01,-9.84
6890,-24.56,330.56,146.5,3.19,5.54,-7.53
6900,-12.5,338.25,145.87,2.87,5.3,-6.16
6910,2.12,343.19,148.19,4.28,4.69,-5
6920,11.63,352.25,150.12,5.11,3.78,-3.84
6930,4.44,359.81,147.62,6.58,2.1,-2.7
6940,4.44,359.81,147.62,7.41,1.2,-0.78
6950,-16,377.37,137.25,7.94,1,2.14
6960,-42.19,256.69,93.75,8.75,1.13,5.18
6970,-34.31,206.12,72.44,9.19,1.13,6.61
6980,-21.31,149.81,50.88,9.44,1.35,7.84
6990,-21.31,149.81,50.88,9.42,1.3,8.4
7000,-3.87,88.31,32,9.33,1.22,8.86
7010,33.75,-39.69,10.19,9.12,0.92,8.68
7020,54.69,-103.69,-4,8.99,0.85,7.86
7030,72.75,-162.44,-17.81,8.24,0.89,4.82
7040,72.75,-162.44,-17.81,7.98,0.92,2.68
7050,79.06,-215.12,-30.19,7.53,1.04,0.59
7060,51.88,-304.12,-60.25,6.44,2.13,-2.31
7070,36.25,-339.56,-72.87,5.57,2.64,-3.49
7080,31.37,-375.06,-79.5,4.72,2.9,-4.9
7090,31.37,-375.06,-79.5,4.72,2.9,-4.9
7100,33.56,-411.37,-81.62,3.19,2.02,-11.02
7110,10.88,-523.25,-94,2,1.97,-12.43
7120,-8.38,-601,-114.87,0.15,2.71,-14.59
7130,-12.81,-562.44,-140,-2.23,3.63,-21.11
7140,-12.81,-562.44,-140,-2.23,3.63,-21.11
7150,-20.62,-542.19,-166.44,-4.75,5.51,-26
7160,-27,-490.87,-227,-6.72,6.82,-28.36
7170,-22.75,-463.75,-253.12,-10.5,9.67,-33.16
7180,-8.25,-429.37,-275.12,-12.8,11.38,-35.84
7190,-8.25,-429.37,-275.12,-12.8,11.38,-35.84
7200,13,-379.25,-288.37,-18.07,17.76,-42.44
7210,56.38,-225.44,-257.19,-18.91,19.33,-43.8
7220,55.31,-141.87,-200.37,-19.11,20.12,-44.7
7230,31.75,-53.75,-130.25,-18.85,20.43,-44.74
7240,31.75,-53.75,-130.25,-18.85,20.43,-44.74
7250,0,35.56,-56.19,-17.31,19.54,-41.11
7260,-36.88,179.94,63.56,-14.64,15.64,-35.02
7270,-51,230.12,95.44,-12.43,12.61,-28.85
7280,-60.31,262.69,117.75,-11.37,11.47,-26.24
7290,-60.31,262.69,117.75,-11.37,11.47,-26.24
7300,-67.56,276.12,135,-10.16,10.37,-24.36
7310,-101.37,267.75,151.75,-7.15,7.33,-21.42
7320,-121.06,259.12,150.37,-6.04,6.92,-20.72
7330,-133.75,255,145.12,-5.24,6.75,-20.19
7340,-133.75,255,145.12,-5.24,6.75,-20.19
7350,-137.94,257.81,137.31,-4.34,7.22,-18.3
7360,-97.56,285.25,130.37,-3.13,8.04,-15.87
7370,-66.06,307.06,132.56,-2.18,8.25,-13.77
7380,-66.06,307.06,132.56,-1.28,7.91,-12.76
7390,-43.38,321.5,139.62,-1.28,7.91,-12.76
7400,-35.81,326.69,145.94,-0.3,7.54,-11.74
7410,-39.5,327.31,150.44,2.19,6.32,-8.07
7420,-45.31,325.19,154.75,3.08,5.46,-6.46
7430,-45.94,320,155.25,4.36,5.02,-5.26
7440,-33.5,311.62,151.44,4.36,5.02,-5.26
7450,-12.69,306.87,144.37,6.01,3.71,-3.43
7460,1.75,292.19,126.87,7.77,3.31,-2.54
7470,5.75,287.25,107.25,8.19,3.23,-1.87
7480,-1.44,299.06,85.87,8.84,4.4,2.13
7490,-11.88,252.56,64.31,8.84,4.4,2.13
7500,-12.31,187.12,48.25,8.79,5.03,3.46
7510,-4.31,139.06,43.13,8.52,5.51,5.33
7520,6.81,87.87,45.13,8.92,4.94,5.27
7530,19.62,32.88,52.19,9.15,4.03,5
7540,31.81,-19,58.38,9.15,4.03,5
7550,44.75,-67.69,56.5,9.64,2.15,3.66
7560,55.88,-112.5,46.31,9.6,0.91,0.76
7570,59.94,-153.44,28.56,9.44,0.69,-1.1
7580,49.5,-194.5,7.44,8.6,1.59,-3.9
7590,28.75,-230.06,-16.75,8.6,1.59,-3.9
7600,9.75,-257.06,-37.81,7.81,2.26,-4.71
7610,0.81,-282.12,-54.19,5.87,4.2,-7.41
7620,2.37,-316.37,-68.75,4.56,4.93,-8.95
7630,13.69,-357.37,-82.06,3.43,5.38,-10.03
7640,31.25,-406.56,-87.06,3.43,5.38,-10.03
7650,53.69,-474,-85.56,1.91,5.56,-10.97
7660,81.75,-454.06,-80.75,0.5,4.11,-20.51
7670,82.62,-416.62,-76,-0.15,3.91,-22.41
7680,56.38,-393,-81.25,-1,4.19,-24.21
7690,18.75,-374.75,-95.5,-1,4.19,-24.21
7700,-9.44,-364.37,-115.81,-1.95,4.72,-25.1
7710,-17.5,-362.87,-139.06,-4.6,6.19,-27.98
7720,-5.31,-357,-165.06,-6.83,8.49,-31.91
7730,15.56,-337.69,-187.06,-8.46,9.98,-33.72
7740,33.5,-306.12,-203.81,-8.46,9.98,-33.72
7750,44.13,-262.87,-212.44,-10.07,11.48,-35.04
7760,47.94,-216.19,-206.75,-13.83,14.97,-38.31
7770,41.63,-175.56,-183.94,-14.61,15.49,-39.54
7780,15.06,-138.5,-150.37,-15.35,16.64,-40.73
7790,-26.75,-98.75,-111.44,-15.35,16.64,-40.73
7800,-64.44,-49.13,-68.19,-15.32,17.2,-40.52
7810,-81.19,17.62,-16.37,-14.21,16.77,-38.19
7820,-75.37,103.19,42.81,-12.58,12.56,-32.27
7830,-62.25,190.62,95.62,-11.36,10.93,-29.07
7840,-62.75,258.12,130.69,-11.36,10.93,-29.07
7850,-74.81,299.62,154.75,-10.25,9.67,-25.87
7860,-82.94,318.19,170,-6.56,6.58,-19.57
7870,-87.69,319.37,177.12,-5.19,5.91,-18.33
7880,-96.56,309.75,176.94,-3.9,5.47,-17.1
7890,-106.25,298.81,170.5,-3.9,5.47,-17.1
7900,-109.06,289.69,159.87,-2.16,4.99,-15
7910,-102,284.69,147,-0.37,5.21,-12.76
7920,-84.94,285.5,132.37,0.65,5.64,-10.58
7930,-60.5,288.87,120.19,0.65,5.64,-10.58
7940,-34.5,292.5,110.25,1.32,5.85,-9.5
7950,-12.38,292.69,102.87,2,5.97,-8.51
7960,4.87,289.75,99.31,3.12,6.08,-7.28
7970,21.56,281.81,93.25,3.76,5.7,-5.81
7980,35.63,278.75,95,4.71,5.11,-5.12
7990,32.75,272.37,93.5,5.3,4.57,-4.49
8000,11.31,274.44,89.56,6.12,3.89,-4.1
8010,-25.19,285.31,87.75,6.69,3.39,-1.93
8020,-61.06,232.19,79.87,7.24,3.41,0.36
8030,-75.75,168.62,68.37,7.52,3.59,1.9
8040,-70.62,119.12,61.94,8.15,3.37,3.8
8050,-53.06,63.75,53.25,8.59,3.03,4.18
8060,-27.37,8,38.63,8.68,2.83,3.9
8070,0.25,-41.19,22.44,8.47,2.61,2.47
8080,27.06,-83,5.81,8.28,2.67,1.46
8090,51.69,-116.44,-10.13,7.93,2.87,0.22
8100,71.75,-141.5,-22.87,7.34,3.34,-1.76
8110,81.19,-166.69,-33.25,6.75,3.39,-2.84
8120,77.5,-195.56,-43.81,6.09,3.59,-3.91
8130,62.06,-231.62,-54.31,5.57,4.02,-4.83
8140,44.88,-273.69,-62.88,4.42,4.66,-7.13
8150,33.5,-314.81,-69.69,3.55,4.9,-8.63
8160,30.5,-353.44,-74.94,2.79,4.99,-10.17
8170,30.94,-407.44,-81.37,1.05,5.24,-11.74
8180,34.56,-472.31,-89.37,0.08,5.51,-15.28
8190,40.94,-448.56,-96,-1.21,5.15,-18.15
8200,28.5,-446.81,-107.5,-1.87,4.96,-20.53
8210,10.25,-455.5,-129.75,-3.64,5.81,-25.84
8220,-1.94,-448.19,-153,-4.76,6.64,-28.32
8230,2.37,-418.5,-177.06,-6.4,7.77,-30.65
8240,27.25,-362,-195.31,-8.66,10.33,-34.68
8250,59.69,-291.25,-203.31,-10.11,11.47,-36.17
8260,82.31,-221.37,-201.19,-11.67,12.58,-37.09
8270,85.37,-166.87,-187.69,-13.08,13.56,-37.67
8280,65.37,-134.31,-163.75,-15.11,15.23,-39.48
8290,25.69,-111.75,-130,-15.47,15.66,-40.57
8300,-26.19,-88.5,-88.56,-15.5,15.8,-41.78
8310,-76.56,-46.44,-46,-14.53,15.94,-41.98
8320,-99.75,24.69,-4.62,-14.04,15.94,-40.19
8330,-80.62,117.12,35.88,-13.48,15.29,-37.29
8340,-42.75,204.06,69.56,-12.08,12.27,-31.24
8350,-26.87,264.25,89.25,-11.08,11.44,-28.68
8360,-40.94,291.62,105.25,-10.18,10.73,-26.17
8370,-63.56,298.62,122.69,-9.08,10,-24.13
8380,-84.31,296.94,138.06,-7.08,8.08,-21.33
8390,-105.75,290,147.75,-6,7.45,-20.1
8400,-123.37,283.75,150.69,-4.96,7.11,-18.9
8410,-131.75,279.56,151.37,-3.48,6.47,-17.14
8420,-131.12,280.19,149.81,-2.51,6.37,-16.23
8430,-123.19,287.87,144.87,-1.75,6.45,-14.96
8440,-105.5,299.5,139.25,-1.19,6.62,-13.45
8450,-78.06,311.12,135.69,-0.02,6.71,-10.59
8460,-48.5,318,133.06,0.16,6.66,-9.36
8470,-23.69,319.31,130.5,2.25,6.31,-8.09
8480,-0.44,315.12,125.25,2.93,5.82,-6.09
8490,21.25,311.75,127.31,3.68,5.02,-5.32
8500,31,311.31,125.94,4.49,4.26,-4.46
8510,21.56,303.81,117.94,5.61,3.83,-3.92
8520,-2,316.37,107.94,6.14,3.03,-2.45
8530,-31.62,304.62,94.5,6.86,3.05,0.78
8540,-49.19,224.81,78.62,7.34,3.41,2.31
8550,-48.75,174.56,66.81,7.37,3.69,4.48
8560,-38.38,123.75,61.13,7.62,3.6,5.24
8570,-22.69,66.69,56.13,7.82,3.39,5.37
8580,-4.12,13.31,50.19,7.88,2.58,4.63
8590,15.31,-33.19,43.25,7.88,2.08,3.92
8600,34.06,-68.94,33.75,7.69,1.69,3.2
8610,49.13,-99.06,22.62,7.36,1.32,2.33
8620,55.44,-128,10.75,7.05,0.94,0.79
8630,50.19,-162.56,-2.12,6.69,0.9,-0.2
8640,38.38,-198.94,-15.88,6.18,1.07,-1.28
8650,27.75,-233.81,-28.62,5.62,1.7,-3.24
8660,20.75,-271.06,-39.44,5.18,2.03,-4.88
8670,15.63,-309,-48.88,4.7,2.31,-6.74
8680,10.94,-340.69,-57.69,4.27,2.48,-8.57
8690,7.44,-374.12,-68.62,4.33,2.59,-10.97
8700,5.25,-435,-88.69,2.92,3.08,-11.69
8710,8.81,-512.31,-117.87,1.79,4.2,-14.77
8720,24.25,-489.56,-147.31,-0.77,5.39,-21.58
8730,24.44,-497.81,-174.12,-2.07,6.11,-25.22
8740,11,-512.5,-211.94,-4.34,7.57,-29.38
8750,-4.81,-497.19,-250.37,-6.39,9.61,-32.99
8760,-6.75,-442.44,-275.69,-10.28,14.57,-38.36
8770,12.31,-360.69,-278.06,-12.03,16.7,-40.35
8780,40.81,-267.94,-256.06,-13.46,18.23,-41.82
8790,59.69,-182,-216.56,-14.61,20.13,-43.58
8800,56.38,-104,-163,-14.72,20.36,-43.62
8810,30.37,-31.5,-99.19,-14.39,20.01,-42.85
8820,-8.69,32.63,-34.13,-12.82,17.15,-38.65
8830,-47.69,85.44,20.62,-11.47,15.09,-35.66
8840,-75.75,128.69,53.81,-10.45,13.87,-32.33
8850,-79.12,163,68.69,-9.48,13.34,-29.36
8860,-64.69,182.62,81.69,-7.86,11.39,-27
8870,-61.25,195.62,91.31,-7.1,10.67,-26.17
8880,-73.25,209.44,97.81,-6.51,10.11,-24.78
8890,-83.31,221.19,102.31,-5.55,9.34,-21.77
8900,-83.37,227.31,107.19,-4.73,8.84,-21
8910,-82.62,229.25,109.94,-3.99,8.45,-20.31
8920,-85.12,231.69,109.06,-3.36,8.28,-19.61
8930,-87.31,237.87,108.12,-2.68,7.97,-17.93
8940,-86.94,246.5,106.56,-2.19,8.14,-16.7
8950,-79.87,253.69,103.94,-1.77,8.41,-15.46
8960,-65.5,260.81,106.56,-0.87,8.23,-13.65
8970,-51.75,267.25,112.19,-0.23,7.97,-12.64
8980,-40.69,273.44,115.62,0.04,7.81,-11.4
8990,-26.06,279,115.37,1.62,7.43,-9.9
9000,-2.12,282.25,118.12,2.38,6.74,-8.23
9010,21.44,290.62,125.31,2.72,5.95,-7.43
9020,32.88,294,127.25,4.03,5.18,-6.5
9030,25.87,283,121.94,4.95,4.39,-4.95
9040,6.19,272.12,111.25,5.51,4.25,-4.01
9050,-16.31,275.75,99.94,6.01,4.06,-3.02
9060,-30.62,287.44,89.06,6.45,3.92,-1.41
9070,-31.56,235.12,77.44,6.55,4.94,2.59
9080,-16.5,184.5,71.19,6.4,5.17,3.95
9090,4,139.81,76.19,6.75,4.9,4.67
9100,20,87.75,83.56,7.09,3.5,4.67
9110,28.37,36.88,89.06,7.55,2.36,4.4
9120,30.06,-6.31,87.37,7.91,1.24,4.15
9130,29.37,-44.63,76.44,8.21,-0.39,3.97
9140,29.81,-79.12,57.25,8.14,-0.77,4
9150,33.75,-114.31,30.06,7.72,-0.77,4.02
9160,39.94,-153.31,0.13,7.28,-0.27,3.98
9170,44.13,-206,-26.37,5.72,1.88,2.48
9180,43.81,-268.69,-42.5,4.4,2.69,0.51
9190,39.69,-331.81,-46.5,3.82,2.77,-1.84
9200,30.06,-398.25,-48.56,2.93,2.25,-7.18
9210,20.44,-463.19,-55.75,2.33,1.98,-10.12
9220,12.19,-533.25,-70.75,0.99,1.89,-12.06
9230,5,-658.56,-96.5,-2.04,2.3,-14.35
9240,1.87,-689.5,-127.06,-5.96,2.36,-28.28
9250,-34.44,-694.87,-168.06,-7.05,3.21,-34.74
9260,-89.25,-676.87,-233.12,-9.76,6.02,-40.63
9270,-117.87,-569.12,-288.06,-12.69,13.36,-45.88
9280,-86.44,-407.19,-305.31,-14.06,16.76,-44.99
9290,7.37,-244.19,-287,-15.37,19.09,-43.97
9300,113.56,-111.5,-237.87,-15.81,19.96,-43.74
9310,162.25,-20.31,-172.62,-15.08,19.53,-43.4
9320,126.75,30.81,-104.12,-14.32,18.42,-42.08
9330,40.63,54,-42.13,-13.45,17.34,-40.04
9340,-38.81,69.06,8.5,-11.32,15.29,-35.61
9350,-77.81,90.81,46.38,-10.33,14.19,-33.85
9360,-84.94,121.31,70.19,-9.53,13.3,-32.33
9370,-80.5,155.75,85.75,-8.7,11.57,-29.64
9380,-79.19,187.75,98.94,-7.96,10.76,-28.3
9390,-86.81,213.81,111.19,-7.3,9.95,-26.8
9400,-98.12,235.44,121.56,-6.67,9.35,-24.95
9410,-103.37,250.56,130.56,-5.97,8.08,-21.61
9420,-103.31,256.62,139.5,-5.03,7.35,-20.57
9430,-106.87,253.69,144.62,-4.83,6.82,-19.73
9440,-111.12,250.44,140.19,-2.41,6.36,-17.27
9450,-98.94,248.37,133.31,-1.49,5.85,-16.58
9460,-74.5,257.37,127.37,-0.85,5.75,-15.99
9470,-52.06,273.12,117.44,-0.04,5.62,-15.18
9480,-36.5,292.56,105.06,0.58,6.14,-12.68
9490,-26.94,308.62,99.87,1.01,6.14,-11.07
9500,-19.56,317.81,99.25,1.62,6.09,-9.43
9510,-12.06,321.81,101.37,2.93,5.44,-6.57
9520,-2.75,317.75,102.06,3.75,5.06,-5.36
9530,9.19,315.81,102.81,4.58,4.43,-4.28
9540,16.19,308.81,100.94,5.5,3.91,-3.39
9550,13.63,310.62,93.56,6.56,2.92,-2.49
9560,0.75,308.37,80.37,7.32,2.74,0.11
9570,-16,235.62,61.25,7.69,3.17,1.02
9580,-29.87,183.87,42.94,7.72,3.77,3.19
9590,-41.44,127.62,31,7.82,4.14,4.03
9600,-41.44,127.62,31,7.77,4.38,4.38
9610,-33.06,14.56,22.62,8.09,3.86,3.87
9620,-12.63,-32.44,23.69,8.32,3.26,2.81
9630,10.13,-69.56,21.25,8.49,2.58,1.65
9640,26.19,-95.44,11.88,8.58,2.07,0.63
9650,26.19,-95.44,11.88,8.89,1.67,-0.17
9660,33.56,-114.75,-3.25,8.72,1.96,-0.45
9670,36.06,-158.06,-45.81,8.11,2.75,-0.72
9680,39.44,-185.56,-65.37,6.89,4.44,-1.27
9690,47.81,-216.37,-77.81,6.26,5.08,-2.02
9700,47.81,-216.37,-77.81,5.75,5.51,-3.19
9710,57.94,-252.37,-84.69,4.92,5.73,-4.99
9720,66.19,-337.25,-93.75,3.57,5.76,-8.82
9730,60.25,-384.87,-98.37,2.68,5.55,-10.65
9740,51.44,-459.75,-106.81,1.01,5.45,-11.83
9750,51.44,-459.75,-106.81,-1.9,6.13,-20.37
9760,48.13,-569.12,-121.12,-4.21,5.82,-25.38
9770,17.12,-541.56,-130.19,-4.48,5.57,-29.6
9780,-35.81,-522.87,-155.81,-5.59,6.3,-33.37
9790,-73.75,-468.25,-191.87,-7.25,9.9,-37.17
9800,-73.75,-468.25,-191.87,-9.01,12.27,-38.15
9810,-62.75,-375.37,-225,-10.25,14.18,-38.88
9820,74.87,-162.5,-236.62,-12,17.12,-39.64
9830,124.25,-79.5,-220.87,-12.8,18.19,-39.36
9840,128.62,-24.06,-189.5,-13.39,18.9,-38.91
9850,128.62,-24.06,-189.5,-13.87,19.26,-38.46
9860,93.94,8.38,-142.69,-13.46,19.17,-37.16
9870,-26.25,45.63,-25.56,-12.97,18.53,-36.27
9880,-70.12,72.06,30.25,-11.99,17.48,-35.17
9890,-85.12,114.06,76.62,-10.26,13.84,-32.17
9900,-85.12,114.06,76.62,-9.42,12.54,-30.22
9910,-84.06,163.56,106.5,-8.67,11.48,-28.04
9920,-74.19,245.75,135.56,-7.56,9.69,-24.07
9930,-72.06,269.81,145.69,-6.67,8.93,-22.51
9940,-77.37,283,156.19,-5.89,8.15,-21.02
9950,-77.37,283,156.19,-5.89,8.15,-21.02
9960,-87.94,288.5,167.25,-5.03,7.19,-19.76
9970,-102.37,285.37,174.5,-2.57,4.89,-16.87
9980,-98.62,284.94,170.31,-1.45,4.35,-15.9
9990,-85.5,283.69,159.25,-0.01,4.15,-14.16
10000,-85.5,283.69,159.25,-0.01,4.15,-14.16
