timestamp,gyrox,gyroy,gyroz,accx,accy,accz
10,12.25,-173.25,6.12,0,0,0
20,-3.87,-199.94,-16.94,0,0,0
30,-27.75,-230.62,-35.94,0,0,0
40,-41.31,-266.56,-54.63,-0.57,-2.22,-8.82
50,-37.31,-312.62,-74.37,-1.25,-1.65,-9.63
60,-15.38,-385.87,-95.56,-2.32,0.13,-10.54
70,31.81,-441.19,-113.12,-4.8,1.63,-12.83
80,89.19,-369.44,-100.19,-5.91,1.65,-16.01
90,100.31,-343.06,-83.25,-5.18,1.09,-22.17
100,73,-304.37,-72.75,-5.16,0.93,-23.35
110,38.75,-265.87,-68.5,-4.93,0.75,-23.21
120,26.25,-247.25,-74.94,-4.24,1.12,-23.19
130,37.38,-244.44,-86.69,-4.38,1.21,-24.11
140,55.44,-250.31,-103.87,-4.49,1.32,-25.69
150,62.25,-258.12,-126.06,-5.19,1.79,-28.04
160,51.31,-253.19,-143.12,-6.77,4.2,-33.23
170,30.56,-226.19,-147.56,-8.08,5.47,-35.35
180,5.44,-179.94,-137.06,-9.13,6.42,-37.32
190,-21.25,-119.37,-119.12,-10.12,8.25,-39.36
200,-37.63,-46.06,-96.87,-10.58,9.26,-38.79
210,-29.37,39.94,-65.31,-10.97,10.13,-37.4
220,-7.56,126.25,-22.56,-11.43,10.54,-35.34
230,-0.94,197.12,28.94,-11.68,8.82,-30.13
240,-23.81,238.12,81,-11.05,7.17,-27.28
250,-59.94,250.44,122.69,-10.23,5.49,-24.65
260,-87.94,246.56,149.69,-8.4,2.28,-20.6
270,-100.94,238.81,162,-7.36,1.21,-19.51
280,-99.94,234.81,161.37,-6.32,0.52,-18.8
290,-86,242.69,152.25,-5.59,0.16,-18.05
300,-62.81,260,142.37,-4.64,-0.37,-15.9
310,-38.25,277.81,131.62,-3.98,-0.49,-14.86
320,-19.06,296.37,120.56,-3.23,-0.45,-13.71
330,-7.62,310.94,111.19,-2.33,-0.26,-10.64
340,-4.12,318.69,104.06,-1.72,-0.14,-9.34
350,-9.81,323.5,101.25,-1.08,-0.2,-8.21
360,-19.62,339.25,101.19,-0.46,-0.7,-6.47
370,-23.12,347.19,101.06,0.82,-1.19,-3.16
380,-23.12,347.19,101.06,1.39,-1.29,-2.61
390,-20.37,213.31,83.62,1.37,-1.45,-1.41
400,-30.06,153.19,72.06,3.13,-2.14,0.16
410,-42.75,84.25,51.94,2.98,-2.22,0.49
420,-44.56,26,31.94,2.57,-2.15,0.93
430,-44.56,26,31.94,1.75,-2.5,1.2
440,3.19,-79.81,9,1.15,-3,0.34
450,36.38,-129.5,-0.56,1.03,-3.49,-0.98
460,59.69,-175.69,-15.06,0.6,-4.09,-2.76
470,64.44,-222.94,-41.56,0.4,-4.18,-6.91
480,64.44,-222.94,-41.56,-0.32,-3.43,-8.66
490,49.44,-293.44,-102.12,-1.39,-2.24,-9.91
500,54.75,-333.69,-119.25,-3.33,0.46,-10.76
510,73.19,-396.37,-123.81,-5.18,1.36,-11.6
520,98.37,-392.87,-109.25,-5.72,1.3,-15.05
530,98.37,-392.87,-109.25,-5.68,0.45,-18.45
540,98.44,-399.12,-97.19,-5.51,0.96,-25.39
550,45.63,-369,-107.94,-5.77,1.64,-27.35
560,42.19,-310.75,-114.37,-6.22,2.55,-28.74
570,48.69,-251.25,-112.62,-5.91,3.62,-31.11
580,48.69,-251.25,-112.62,-6.3,4.26,-32.14
590,46.94,-208.31,-113.31,-7.01,5.2,-33.13
600,12.38,-161.12,-105.44,-8.63,6.96,-35.9
610,-9.75,-137.19,-84.69,-9.33,7.35,-37.16
620,-29.69,-99.12,-53.25,-9.51,7.47,-38.15
630,-29.69,-99.12,-53.25,-9.7,7.45,-38.7
640,-38.81,-43.38,-18.62,-9.37,6.49,-37.65
650,-26,117.56,49.13,-8.88,5.4,-35.25
660,-27.19,190.31,71.31,-8.38,4.28,-31.95
670,-39.13,239.5,84.62,-7.64,2.36,-24.83
680,-39.13,239.5,84.62,-7.64,2.36,-24.83
690,-53.75,257.12,93.25,-7.05,1.76,-22.16
700,-77.37,234.37,97.69,-5.22,0.62,-18.65
710,-77.56,218.44,90.81,-4.53,0.31,-16.42
720,-68.25,208.5,84.81,-3.92,0.24,-15.78
730,-68.25,208.5,84.81,-3.92,0.24,-15.78
740,-52.88,208.19,77.69,-3.55,0.26,-15.22
750,-22.31,222.75,67.87,-2.64,0.41,-13.07
760,-11.88,232.87,66.62,-2.26,0.35,-12.07
770,-5.31,239.62,65.75,-1.6,0.24,-11.07
780,-5.31,239.62,65.75,-1.6,0.24,-11.07
790,-3.25,243.75,66,-1.08,-0.16,-8.92
800,-9,239.25,61.38,-0.07,-0.42,-7.21
810,-10.5,260.94,59.31,0.45,-1.14,-5.67
820,-12.75,219.62,56.13,1.66,-1.39,-3.98
830,-12.75,219.62,56.13,1.66,-1.39,-3.98
840,-9.31,154.25,44.56,1.58,-1.48,-3.27
850,2.81,70.56,19.94,1.64,-1.53,-1.47
860,9.44,24.5,11.88,1.38,-1.42,-1.47
870,12.5,-21.81,5.69,1.03,-1.62,-1.42
880,12.5,-21.81,5.69,1.03,-1.62,-1.42
890,15.25,-68.87,-0.94,0.29,-2.13,-2.09
900,20.81,-116,-9.88,-0.23,-2.75,-4.28
910,27.81,-164.62,-22.31,-0.77,-2.62,-7.51
920,31.69,-208.19,-38.44,-1.55,-2.02,-8.9
930,32.63,-247.37,-58.25,-1.55,-2.02,-8.9
940,37.06,-290.31,-75.69,-2.55,-1.18,-10.2
950,53.69,-351.25,-85.5,-5.16,0.61,-14.87
960,84.12,-410.81,-87.31,-5.86,-0.19,-17.74
970,113.62,-360.69,-76.56,-4.87,-0.56,-21.06
980,97.75,-351.69,-73.5,-4.87,-0.56,-21.06
990,53.44,-322.87,-77.25,-5.38,0.66,-24.09
1000,16.94,-278,-75.19,-5.56,1.47,-23.61
1010,7.19,-240.69,-69.19,-5.45,1.36,-23.86
1020,15.69,-221.87,-66.31,-5.28,1.65,-26.36
1030,27.5,-219.25,-74.31,-5.28,1.65,-26.36
1040,32.56,-220.94,-89.62,-5.99,2.27,-28.01
1050,28.12,-215.25,-103.06,-9.16,4.97,-32.83
1060,15.31,-204.87,-107.12,-10.28,5.51,-34.45
1070,-0.75,-187.94,-97.5,-10.77,5.72,-36.47
1080,-17.56,-162.75,-76.25,-10.77,5.72,-36.47
1090,-36.56,-114.81,-50.94,-10.97,5.82,-39.45
1100,-49.94,-42.31,-24.25,-10.8,5.87,-37.51
1110,-45.25,48.13,3.5,-10.43,5.54,-34.73
1120,-27.12,137.12,30,-9.68,4.05,-28.52
1130,-17.94,207.25,51.63,-9.68,4.05,-28.52
1140,-36,250.31,68.69,-9.25,3.37,-25.56
1150,-66.5,262.37,83.06,-7.53,1.71,-18.42
1160,-88.37,259.44,95,-6.82,1.35,-16.99
1170,-96.5,248.44,103.19,-5.97,0.98,-16.03
1180,-93.5,233.62,106.87,-5.97,0.98,-16.03
1190,-83.12,221.56,105.31,-5.32,0.62,-15.25
1200,-69.12,214.19,99.37,-4.04,-0.12,-13.54
1210,-54.06,211.94,90.12,-3.59,-0.06,-12.87
1220,-37.13,212.5,79.87,-3.06,-0.02,-11.49
1230,-16.25,215,71.12,-3.06,-0.02,-11.49
1240,2.94,218.25,67.12,-2.62,-0.09,-10.92
1250,11.88,219.06,65,-1.57,-0.4,-9.8
1260,8.19,213.44,60.63,-1.44,-0.67,-8.51
1270,-4.06,206.94,57.5,-0.55,-1.13,-7.69
1280,-21.69,197.25,55.06,-0.55,-1.13,-7.69
1290,-33.75,195,52.38,0.04,-1.05,-7.06
1300,-33.69,198.12,53.19,1.13,-1.87,-4.19
1310,-21.62,171.5,45.69,0.95,-1.63,-3.81
1320,-2.62,122.5,34.06,0.62,-1.42,-2.93
1330,11.13,92,27.19,0.62,-1.42,-2.93
1340,15.69,50.56,21.87,0.13,-1.43,-2.85
1350,14.31,5,18.44,0.03,-1.91,-2.99
1360,10.94,-43.88,14.31,-0.33,-2.66,-4.49
1370,10.06,-94,5.87,-0.57,-2.85,-5.84
1380,14.94,-140.12,-7.37,-0.57,-2.85,-5.84
1390,25.25,-175.31,-23.75,-1.1,-2.81,-7.3
1400,36.06,-200.31,-40.88,-2.43,-1.58,-10.72
1410,42.31,-214.87,-57.31,-2.43,-1.58,-10.72
1420,44.88,-236.94,-68.81,-2.74,-0.97,-10.92
1430,50.56,-260.87,-77.31,-3.7,-0.28,-11.11
1440,57.5,-287.75,-76.06,-4.89,0.45,-12.03
1450,65.19,-298.31,-69.44,-5.29,0.2,-13.96
1460,65.5,-294.62,-62.38,-5.79,-0.26,-15.62
1470,50.38,-303.56,-59.94,-5.88,-0.51,-19.35
1480,30.25,-297.37,-59.06,-5.91,-0.53,-20.56
1490,18,-273.5,-62.75,-6.22,-0.55,-21.38
1500,12.44,-244.37,-73,-5.9,-0.65,-21.63
1510,9.19,-235.37,-95.69,-6.01,0.39,-22.4
1520,9.31,-253.06,-127.19,-7.1,1.61,-23.35
1530,13.69,-288.44,-156.19,-8.57,2.94,-25.27
1540,16.19,-320.44,-174.12,-12.2,5.79,-32.7
1550,6.5,-321.19,-175.31,-13.84,6.92,-36.8
1560,-19.62,-279.5,-158.94,-14.8,7.8,-40.38
1570,-51.13,-209.31,-133,-15.67,9.43,-43.38
1580,-61.38,-114.94,-102.06,-15.62,10.06,-42.85
1590,-44.06,-7.25,-67.75,-15.46,10.54,-41.59
1600,-15.94,97.75,-29.56,-15.46,11.03,-39.47
1610,-0.19,186.06,19.06,-15.29,9.47,-32.96
1620,-17.19,246.5,72.87,-14.82,7.6,-29.94
1630,-63.56,273.69,122.69,-14.02,5.64,-26.64
1640,-104.81,277.06,161.37,-12.06,1.93,-20.86
1650,-119,272.56,185.25,-10.88,0.57,-19.35
1660,-112.69,271.56,191.94,-9.7,-0.52,-18.33
1670,-99.06,275.62,184.12,-8.74,-1.31,-17.51
1680,-83.75,284.25,167.94,-7.79,-2.03,-15.23
1690,-66.25,292.44,150.5,-7,-1.97,-14.23
1700,-46.19,301.25,134.62,-6.42,-1.73,-13.22
1710,-25.25,311.44,123.31,-5.46,-1.47,-10.82
1720,-6.31,323.25,116,-4.87,-1.33,-9.84
1730,3.56,334.31,114.81,-4.07,-1.45,-8.77
1740,0.25,343.12,113.12,-3.34,-1.76,-7.67
1750,-11.44,364.62,108.37,-2.78,-2.01,-6.41
1760,-25.44,367.56,106.62,-1.42,-2.39,-3.32
1770,-38.44,275.81,91.37,-0.88,-2.43,-3.08
1780,-51.81,231.81,84.62,0.17,-2.48,-0.83
1790,-67.31,177.12,83.31,0.65,-2.73,-0.12
1800,-73.81,119.37,74.75,1.31,-2.89,0.32
1810,-67.12,66.31,62.06,1.25,-3.43,1.13
1820,-39.25,20.62,45.63,0.98,-3.62,1.19
1830,2.81,-21.87,28.37,0.99,-3.91,0.7
1840,41.38,-61.06,8.06,0.77,-4.18,-0.3
1850,59.75,-99.87,-15.38,-0.04,-4.18,-2.94
1860,54.31,-140.75,-40.06,-0.59,-3.89,-4.15
1870,37.88,-182.06,-64.19,-1.22,-3.28,-5.05
1880,28.69,-221.75,-84.94,-1.99,-1.88,-6.99
1890,34.69,-257.06,-102.37,-2.51,-1.21,-8.14
1900,53.81,-287.31,-116.44,-3.23,-0.57,-9.4
1910,78.06,-321.87,-124.81,-4.08,0.06,-10.51
1920,98.06,-383.31,-126.75,-5.51,1.41,-12.16
1930,115.37,-395.31,-124.56,-6.01,1.62,-15.27
1940,116.56,-349,-111.69,-6.61,1.38,-17.57
1950,84.75,-336.75,-101.56,-6.3,1.59,-20.97
1960,42.75,-321.5,-99.44,-6.04,1.82,-21.24
1970,16.87,-316.87,-106.75,-6.56,2.2,-21.54
1980,17.69,-327.94,-118.94,-6.9,2.47,-22.63
1990,38.44,-340.25,-139.44,-8.43,3.87,-28.04
2000,62.31,-322.37,-158.5,-9.66,4.8,-30.6
2010,75.06,-280.56,-163.25,-10.86,5.74,-32.77
2020,69.5,-231.62,-152.25,-13.41,7.36,-36.06
2030,45.13,-188.12,-129.25,-14.39,7.62,-37.14
2040,4.56,-155.75,-97.19,-15.07,7.52,-38.39
2050,-41.44,-128.5,-66.06,-15.8,7.75,-40.82
2060,-70.69,-84.19,-36.88,-15.75,7.95,-41.23
2070,-66.81,-6,-4.62,-15.54,8.05,-40.74
2080,-43.56,97.56,32.75,-15.12,7.79,-39.03
2090,-28.44,195.31,69.12,-14.38,5.75,-31.55
2100,-36.88,265.62,97.69,-14.07,4.77,-27.91
2110,-63.75,301.31,122.81,-13.47,3.68,-24.55
2120,-90.94,301.62,143.19,-11.61,1.35,-19.39
2130,-104.5,286.5,153.37,-10.41,0.63,-17.95
2140,-101.56,270.94,153.31,-9.37,0.21,-17.13
2150,-88.87,263.25,145.94,-8.6,0,-16.52
2160,-73.94,266.25,136.19,-7.72,-0.16,-14.9
2170,-60.38,277,128.5,-7.27,0,-14.08
2180,-49.94,290.06,125.69,-6.62,0.02,-13.06
2190,-41.38,300.19,126,-5.75,-0.36,-10.67
2200,-33.94,306.87,126.81,-4.87,-0.59,-9.63
2210,-30.75,306.12,127.06,-4.02,-0.9,-8.65
2220,-33,298.62,125.25,-3.24,-1.12,-7.72
2230,-35.44,296.81,119.87,-2.21,-1.65,-6.55
2240,-34.31,318.75,115.25,-1.99,-2,-5.8
2250,-35.44,283.06,109.37,-0.2,-2.51,-3.81
2260,-36.44,225.37,92,0.12,-2.53,-1.9
2270,-39.06,188.5,86.19,0.95,-2.83,-0.96
2280,-40.19,142.31,73.75,1.17,-2.77,-0.42
2290,-41.38,91.62,61.31,1.14,-2.97,0.48
2300,-36.31,39.06,47.25,1.21,-3.09,0.66
2310,-21.87,-13.13,32.13,1.1,-3.3,0.54
2320,-3.37,-66.87,14.88,1.29,-3.46,0.06
2330,14.19,-117.56,-5.56,0.44,-3.42,-2.58
2340,28.87,-157.56,-28.62,-0.31,-3.04,-4.07
2350,37.75,-188.5,-47.56,-0.87,-2.62,-5.34
2360,43,-216.44,-61.75,-1.92,-1.84,-7.58
2370,49.06,-244.06,-72.25,-2.46,-1.5,-8.75
2380,56.63,-276,-79.69,-3.04,-1.24,-10.06
2390,64.69,-310.31,-87.44,-3.71,-0.92,-10.91
2400,72.5,-362.81,-95.62,-4.86,0.04,-11.76
2410,82.06,-400.44,-103.44,-5.86,0.44,-14.1
2420,96.44,-369.62,-102.87,-7.4,0.23,-15.77
2430,95.62,-374.44,-95.44,-7.35,-0.04,-20.82
2440,79.12,-367.06,-91.44,-7.17,-0.35,-22.55
2450,55.5,-351.56,-104.62,-7.42,0,-23.77
2460,38.31,-332.5,-126.5,-7.85,0.74,-24.72
2470,34.13,-319.37,-147.44,-8.75,2.44,-27.59
2480,41.06,-308.5,-171.75,-9.42,3.54,-29.48
2490,48.38,-288.31,-193.94,-10.52,5.08,-31.28
2500,53.06,-253.69,-198.37,-13.13,8.32,-34.99
2510,49.94,-207.12,-177.12,-14.22,9.04,-36.47
2520,29.87,-155.94,-138.12,-15.01,9.29,-37.41
2530,-2.94,-111.31,-90.06,-15.88,9.13,-38.64
2540,-31.06,-64,-39.69,-15.89,8.74,-38.93
2550,-40.75,1.62,8.31,-15.64,8.07,-38.49
2560,-34.31,87.19,52.19,-15.09,6.81,-36.82
2570,-30.87,169.31,85.25,-14.07,3.97,-30.25
2580,-42.56,229.5,104.5,-13.6,3.31,-26.84
2590,-61,262.5,119.5,-13.14,2.74,-23.81
2600,-76,269.06,134.69,-11.77,0.96,-19.67
2610,-85.37,259.94,146.75,-10.84,0.17,-18.57
2620,-88.69,247.87,151.12,-9.87,-0.49,-17.83
2630,-85.25,240.31,147.87,-8.97,-0.98,-17.2
2640,-75.06,239.87,137.81,-7.36,-1.66,-15.58
2650,-58.44,246.44,120.87,-6.77,-1.42,-14.89
2660,-39.25,259.5,103.69,-6.23,-1.01,-14.12
2670,-23.56,274.94,91.37,-5.63,-0.42,-11.98
2680,-15.69,287.25,84.5,-4.99,-0.17,-10.79
2690,-15,292.87,82.31,-4.42,0.03,-9.64
2700,-19.75,290.81,84.44,-3.54,-0.01,-8.57
2710,-28.69,286.25,87.56,-2.66,-0.43,-6.79
2720,-37.88,296.19,91.44,-1.71,-0.84,-6.4
2730,-41.5,320.81,91.62,-1.45,-1.37,-4.53
2740,-40.69,255.62,86.62,0.01,-1.69,-1.74
2750,-40.31,210.31,75.19,0.78,-1.78,-0.61
2760,-45.63,163.12,62.31,0.93,-1.87,0.18
2770,-51.31,106.44,46.75,0.77,-1.61,1.5
2780,-49.94,49.56,39.13,0.15,-2.13,1.8
2790,-37.38,-9.88,37.25,0.21,-2.6,1.74
2800,-12.19,-67.25,27.44,-0.06,-3.23,1.2
2810,16.37,-120.31,10.38,-0.78,-4.02,-1.61
2820,37.56,-167,-11,-1.16,-4.2,-3.33
2830,44.13,-210.5,-35.25,-1.78,-4.18,-5.06
2840,38.75,-251.87,-61.38,-2.82,-3.11,-8
2850,35.44,-288.31,-87.12,-3.81,-2.26,-9.1
2860,44.5,-328.25,-106.37,-4.67,-1.42,-10.04
2870,68.31,-393.69,-119.44,-5.71,-0.69,-10.17
2880,102.81,-467.81,-132.44,-7.46,0.43,-16.4
2890,135,-429,-139.62,-7.95,0.41,-20.43
2900,120.25,-421.69,-141.75,-7.94,0.88,-24.13
2910,67.56,-394.81,-147.5,-8.97,2.76,-28.34
2920,9.88,-357.12,-159,-9.89,4.12,-28.57
2930,-16.62,-330.06,-170.69,-11.26,5.61,-29.25
2940,-3.75,-308.94,-172.37,-12.67,6.69,-31.14
2950,16.94,-284.62,-163.94,-14.99,8.31,-38.11
2960,13.13,-239.56,-142.87,-15.77,8.76,-40.58
2970,-16.75,-181,-110.81,-16.27,9.22,-41.85
2980,-39,-108.31,-72,-16.26,9.94,-41.49
2990,-39,-108.31,-72,-15.98,9.7,-40.49
3000,-6.12,87,20.06,-15.3,8.78,-38.41
3010,-0.13,176.12,61.13,-14.3,6.35,-31.37
3020,-17.87,241.25,93.25,-13.99,5.11,-27.56
3030,-43.94,278.62,121.31,-13.33,3.85,-24.29
3040,-66.94,280.81,145.12,-12.31,2.54,-21.93
3050,-82.87,266.75,158.25,-10.15,0.09,-18.95
3060,-91.44,250.75,158.44,-9.03,-0.57,-18.08
3070,-89.25,242.19,146.69,-8.19,-0.87,-17.27
3080,-77.37,242.25,129.81,-6.92,-1.18,-15.58
3090,-77.37,242.25,129.81,-6.39,-0.76,-15
3100,-62.19,245.12,109.12,-6.05,-0.15,-14.34
3110,-41.56,259.12,76.19,-5.76,0.37,-13.54
3120,-38.06,267.25,73.87,-4.86,0.7,-11.29
3130,-39.06,272.37,79,-4.48,0.65,-10.25
3140,-39.06,272.37,79,-3.24,0.43,-9.14
3150,-42.5,275.31,84.62,-2.88,-0.08,-7.04
3160,-55.38,281.37,93.12,-1.37,-0.79,-6.42
3170,-56.81,310.69,94.06,-0.71,-1.06,-5.51
3180,-49.19,301.12,92.75,0.7,-1.72,-1.75
3190,-49.19,301.12,92.75,0.99,-1.67,-0.61
3200,-34.63,233.75,77.25,1.93,-1.69,0.33
3210,-29.94,140.87,44.56,2.13,-1.51,0.82
3220,-33.25,81.31,24.56,0.9,-0.87,1.58
3230,-28.25,29.25,14.38,0.8,-0.91,1.92
3240,-28.25,29.25,14.38,0.42,-1.31,1.91
3250,-11.44,-18.44,12.25,0.21,-2.63,0.59
3260,30.19,-112,1.94,-0.02,-3.13,-0.56
3270,43,-162.25,-16.62,-0.7,-3.34,-2.02
3280,48.44,-213,-40.88,-1.54,-3.24,-3.69
3290,48.44,-213,-40.88,-2.72,-2.22,-7.95
3300,49.06,-268.81,-64.75,-3.97,-1.22,-9.97
3310,66.25,-376.56,-104.69,-5.3,-0.26,-10.76
3320,90.94,-453.12,-112,-7.28,1.2,-16.06
3330,126.62,-409.56,-107.37,-7.77,0.67,-19.4
3340,126.62,-409.56,-107.37,-7.77,0.67,-19.4
3350,128.56,-371.87,-90.37,-7.13,0.06,-22.23
3360,40.44,-315.12,-93.69,-7.16,1.12,-24.62
3370,19,-286.81,-105.62,-7.49,1.74,-24.8
3380,27.25,-273.44,-120.62,-7.85,2.38,-25.89
3390,27.25,-273.44,-120.62,-7.85,2.38,-25.89
3400,44.38,-272.56,-139.75,-9.16,4.28,-30.52
3410,43.94,-252.06,-161.87,-11.18,6.59,-35.29
3420,24.37,-216.31,-151.62,-11.64,7.52,-37.16
3430,7,-159.75,-131.06,-12.72,8.85,-38.87
3440,7,-159.75,-131.06,-12.72,8.85,-38.87
3450,1.69,-92.06,-102.94,-13.03,9.03,-38.77
3460,6.69,52.19,-37.63,-12.83,8.54,-34.85
3470,6.69,52.19,-37.63,-12.47,7.97,-32.25
3480,-0.75,115.75,-5.69,-12.12,7.15,-29.7
3490,-15.5,164.37,24.81,-12.12,7.15,-29.7
3500,-36.88,196.12,53.44,-11.18,5.13,-24.68
3510,-57.13,209.25,79.62,-9.94,2.95,-21.94
3520,-71.12,214.31,99.94,-9.25,2,-20.93
3530,-82.06,216.75,112.19,-8.4,0.9,-18.95
3540,-88.31,217.62,113.87,-8.4,0.9,-18.95
3550,-86.12,220.37,110.25,-7.92,0.7,-18.31
3560,-76.06,230.19,105.25,-6.96,0.38,-15.3
3570,-62.81,245.06,99.69,-6.37,0.38,-14.2
3580,-51.69,259.25,95.62,-5.91,0.35,-13.05
3590,-45,268.44,93.81,-5.91,0.35,-13.05
3600,-39.94,273.19,93.44,-5.31,0.28,-11.93
3610,-36.06,272.25,94.12,-3.29,-0.58,-8.95
3620,-34.63,264.69,92.12,-2.46,-0.87,-8.25
3630,-36.44,253.44,88.19,-1.81,-1.27,-6.96
3640,-42.88,233.56,81.94,-1.81,-1.27,-6.96
3650,-46.56,213,72.75,-0.87,-1.34,-6.7
3660,-42.56,210.25,60.75,0.41,-1.3,-5.91
3670,-36.56,194.75,49.75,0.72,-1.18,-4.67
3680,-26.56,150.75,43.25,1.25,-1.3,-3.94
3690,-15.06,125.75,38.94,1.25,-1.3,-3.94
3700,-8.69,101.81,35.25,1.32,-1.49,-3.44
3710,-5.87,71.87,26.5,1.45,-1.7,-1.59
3720,-2.12,42.44,17.44,1.38,-1.81,-1.27
3730,3.44,5.31,6.37,0.75,-1.9,-1.5
3740,10.56,-38.94,-7.12,0.75,-1.9,-1.5
3750,18.25,-88.12,-22,-0.02,-1.94,-2.25
3760,27.25,-137.44,-37.25,-1.18,-1.82,-5.07
3770,35,-183.75,-50.13,-1.96,-1.78,-8.42
3780,39.25,-225,-59.75,-2.63,-1.76,-9.78
3790,43,-258.25,-68.75,-2.63,-1.76,-9.78
3800,50.56,-281.94,-78.56,-3.51,-1.75,-10.56
3810,60.06,-312.37,-89.5,-5.17,-0.61,-13.16
3820,70,-361.12,-108.69,-6.77,-0.13,-15.24
3830,82.81,-383.25,-131.44,-7.26,0.3,-18.15
3840,96.69,-393.31,-143.56,-7.26,0.3,-18.15
3850,97.94,-400.62,-147.06,-8.72,1.16,-25.26
3860,74.25,-386.69,-146.31,-9.66,1.59,-29.63
3870,31.62,-374.5,-152.87,-12.28,3.38,-35.02
3880,-2.69,-370,-173.44,-13.85,4.95,-39.08
3890,-9.13,-360.12,-203.44,-13.85,4.95,-39.08
3900,7.69,-319.5,-235.37,-15.2,6.99,-43.04
3910,24.12,-235.19,-248.5,-16.14,12.98,-44.2
3920,20.37,-119.87,-233.69,-15.81,13.74,-42.38
3930,-1.44,1.62,-194.44,-15.93,13.82,-38.55
3940,-19.37,106.5,-143.25,-15.93,13.82,-38.55
3950,-34,183.87,-76.25,-16.12,12.77,-30.45
3960,-52.94,239.94,31.87,-13.3,7.32,-24.6
3970,-66.25,272.19,119.12,-10.43,1.8,-20.32
3980,-90.25,280.5,178,-10.43,1.8,-20.32
3990,-121.19,275,209.31,-9.09,0.2,-18.61
4000,-138.75,264.19,216.75,-7.79,-0.92,-17.24
4010,-133.62,254.87,207.19,-6.72,-1.64,-16.33
4020,-112.62,251.75,185.5,-5.62,-2.27,-15.1
4030,-88,255.37,158.69,-5.18,-2.09,-14.56
4040,-67.94,261.06,132.31,-4.85,-1.67,-13.89
4050,-54.19,263.31,110,-4.47,-0.65,-11.97
4060,-43.75,263.87,95.44,-3.88,-0.18,-11.18
4070,-36.06,263.75,89,-3.62,0.11,-10.5
4080,-35.5,258.44,90.62,-2.94,0.1,-9.8
4090,-43.69,242.25,96.69,-2.07,-0.56,-8.35
4100,-53.75,228.56,101.06,-0.99,-0.86,-7.33
4110,-61.31,211.69,97.19,-0.33,-0.83,-6.64
4120,-62.31,190.12,98.06,0.62,-1.67,-6.09
4130,-51,190.31,94.31,1.1,-1.93,-6.41
4140,-34.5,212.12,85.94,1.74,-2.15,-5
4150,-18,187.44,67.94,2.1,-1.76,-4.02
4160,-3.56,152.44,42.63,1,-0.81,-2.11
4170,-1.44,124.94,29.25,0.99,-0.56,-1.18
4180,-7.87,73.12,20.69,0.72,-0.44,-0.56
4190,-13.19,10.94,17,0.45,-1.07,-0.39
4200,-9.69,-53.88,13.56,0.31,-1.62,-1.06
4210,4.94,-113.87,4.81,0.09,-2.17,-2.43
4220,22.87,-165.69,-11.06,-0.4,-2.7,-6.21
4230,33.19,-205.06,-34.88,-1,-2.32,-7.98
4240,32.31,-233.19,-63.31,-1.76,-1.58,-9.22
4250,27.06,-254.56,-89.19,-2.59,-0.57,-10.09
4260,28.44,-274.56,-106.69,-4.05,1.46,-10.65
4270,43.94,-303.44,-112.81,-4.5,1.99,-10.49
4280,75.62,-351.44,-114.31,-6.26,2.58,-11.25
4290,117.56,-354.44,-108.06,-7.05,2.3,-17.27
4300,137.25,-331.25,-88.69,-6.68,1.82,-20.26
4310,109.12,-326.31,-75.37,-6.6,1.55,-21.97
4320,51.5,-310,-68.56,-6.11,1.49,-22.33
4330,7.94,-291.31,-70.69,-5.53,1.88,-22.14
4340,6.12,-279.56,-86.25,-6.04,2.45,-22.93
4350,36.19,-275,-107.62,-6.84,3.08,-24.57
4360,68.37,-277,-129.37,-8.74,5.21,-30.28
4370,78.81,-273.06,-146,-9.73,6.34,-32.84
4380,58.81,-257.62,-147.56,-10.76,7.27,-34.76
4390,22.25,-230.06,-134.5,-11.76,8.07,-36.1
4400,-9.31,-192.44,-108.19,-12.98,8.56,-38.45
4410,-25.25,-149,-75.56,-13.08,8.34,-39.66
4420,-27.81,-93.25,-45.88,-13.07,8.22,-40.58
4430,-24.5,-17.12,-21.5,-12.84,8.43,-38.79
4440,-18,75.87,2.94,-12.88,8.19,-35.44
4450,-11.25,163.06,29.69,-12.81,7.68,-31.72
4460,-16.81,226.69,57.69,-12.58,5.84,-25.13
4470,-44.13,260.31,89.37,-11.85,4.51,-22.44
4480,-77.62,264.75,120.44,-10.81,3.16,-20.37
4490,-99.87,253.19,140.87,-9.76,1.94,-19.01
4500,-107.69,237,147.06,-8.17,0.24,-17.55
4510,-105.25,225.12,141.12,-7.6,0,-17.21
4520,-96.31,224.25,129.5,-7.05,-0.04,-16.83
4530,-85.44,231,117.94,-6.46,0.03,-15.41
4540,-73.75,242.06,107.31,-6.24,0.27,-14.46
4550,-59.06,255.06,100.12,-5.62,0.42,-13.49
4560,-42.38,261.44,95.19,-4.73,0.47,-12.58
4570,-27.69,258.75,88.87,-3.67,0.61,-11.19
4580,-18.44,253.62,80.37,-3.4,0.82,-10.61
4590,-15.94,245.19,73.81,-2.84,0.99,-10
4600,-18.44,231.5,73.06,-2.62,0.77,-8.76
4610,-22.31,216.87,74.81,-1.41,0.44,-8.39
4620,-28.87,206.06,76.44,-0.6,0.03,-7.71
4630,-37.88,187.81,76,0.18,-0.08,-7
4640,-39.19,176.06,79.94,1.09,-1.22,-6.47
4650,-30.75,192.37,75.81,1.77,-1.58,-6.43
4660,-21.19,213.06,69.12,2.67,-1.98,-4.34
4670,-7.62,170.19,48.19,2.35,-0.96,-2.29
4680,10.75,138.56,21.5,2.51,-0.32,-1.27
4690,24.12,106.5,3.44,2.15,0.21,-0.65
4700,27.25,59.63,-5.37,1.51,0.6,-0.09
4710,21.19,5.12,-6.56,1.21,0.41,-0.03
4720,15.94,-53.25,-5.62,0.89,-0.07,-0.52
4730,17.62,-113,-5.81,0.6,-0.68,-1.6
4740,25.19,-168.94,-9.75,0.42,-1.9,-5.41
4750,30.69,-215.87,-20.06,0.12,-2.24,-7.39
4760,32.75,-248.87,-36.44,-0.48,-2.23,-8.93
4770,36.13,-270.5,-55.56,-1.6,-1.52,-10.69
4780,43.25,-290.37,-72.44,-2.48,-0.96,-10.75
4790,56.88,-323.19,-85.81,-3.52,-0.62,-11.22
4800,73.56,-344.81,-95.12,-4.2,-0.64,-13.02
4810,84.94,-326.5,-108.31,-5.28,-0.36,-16.48
4820,77.12,-336.62,-119.75,-6.17,-0.05,-18.02
4830,58.13,-344.94,-133.12,-6.76,0.59,-19.25
4840,44.88,-344.31,-147.81,-8.16,2.07,-21.67
4850,46.5,-333.56,-155.62,-8.67,2.24,-23.04
4860,53.56,-328.19,-163.69,-9.67,2.53,-24.82
4870,56.13,-326.75,-179.81,-10.53,3.05,-26.74
4880,51.5,-325.31,-202.94,-13.52,5.55,-31.79
4890,39.63,-315.94,-219.25,-15.03,6.64,-34.25
4900,17.87,-294.19,-222,-16.14,7.79,-36.52
4910,-9.38,-252.37,-210.94,-16.63,10.03,-39.4
4920,-26.62,-192.62,-191.69,-16.68,10.97,-39.83
4930,-27.87,-114.69,-164.12,-16.76,11.84,-39.39
4940,-21.25,-23.62,-120.5,-15.8,12.21,-34.86
4950,-10.5,65.75,-69.06,-14.75,10.86,-31.53
4960,-1.31,135,-15.75,-14.63,10.03,-29.37
4970,-10.31,176.31,25.31,-14.46,9.56,-27.41
4980,-44.75,193.44,73.06,-13.36,6.57,-23.21
4990,-82.81,200.25,123.94,-12.48,4.76,-21.71
5000,-111.62,202.62,163.87,-11.56,3.1,-20.51
5010,-127.69,204.37,188.56,-10.18,0.43,-18.51
5020,-130.12,208.94,198.31,-9.57,-0.17,-17.66
5030,-120.31,220.69,198.31,-8.94,-0.55,-16.75
5040,-100.75,236.37,192.87,-8.48,-0.77,-15.91
5050,-77.94,254.31,187.25,-7.54,-1.49,-13.71
5060,-58.88,271.5,182.12,-6.78,-1.59,-12.63
5070,-45.94,282.5,176.31,-6.31,-1.63,-11.61
5080,-36.94,285.87,171.37,-5.15,-2.3,-9.52
5090,-30.62,282.62,166.12,-4.15,-2.55,-8.73
5100,-26.31,273.19,159.06,-3.36,-2.77,-8
5110,-23.94,264.5,148.44,-2.73,-2.97,-7.26
5120,-23.87,259.25,137.87,-1.83,-3.9,-6.76
5130,-24.56,282.94,127.37,-0.74,-4.21,-4.62
5140,-21.81,272.19,112.44,0.35,-4.09,-3.55
5150,-10.31,194.25,91.5,0.69,-4.18,-2.34
5160,-1.87,156.81,69.81,1.21,-4.24,-1.94
5170,-7.5,105.69,49.56,1.05,-4.27,-1.83
5180,-17.62,51.88,28,1.26,-4.45,-1.08
5190,-18.12,1.94,7.94,1.34,-4.41,-0.99
5200,-1.44,-42.31,-15.5,1.08,-4.28,-1.28
5210,26.06,-79.5,-39.88,0.73,-4.12,-1.89
5220,52.25,-114.56,-66.06,-0.44,-2.86,-3.76
5230,69.06,-151.31,-92.56,-1.05,-2.15,-4.84
5240,78,-192.19,-114.56,-1.71,-1.35,-6.15
5250,84.56,-238.87,-134.31,-3.54,0.63,-9.55
5260,95.06,-279.31,-146.06,-4.34,1.22,-10.74
5270,106.62,-315.75,-144.94,-4.82,1.56,-10.97
5280,113.75,-376.37,-139.94,-6.22,2.08,-12.11
5290,119.94,-368.12,-124.87,-6.63,1.06,-16.95
5300,108.31,-318.06,-101.25,-6.88,0.46,-18.33
5310,77,-313.12,-93.31,-7.44,0.11,-19.27
5320,47.69,-308.37,-103.87,-8.09,1.14,-20.42
5330,39.31,-312,-130.06,-8.92,2.16,-21.5
5340,55.25,-316.94,-158.12,-9.91,3.05,-23.35
5350,77.56,-317.69,-178.06,-11.01,4.07,-25.71
5360,84.19,-309.12,-187.69,-13.21,6.29,-30.6
5370,65.94,-293.81,-182,-14.28,6.97,-32.47
5380,33,-273.44,-166.25,-15.4,7.62,-33.94
5390,2.81,-239.5,-144.25,-16.83,8.86,-36.52
5400,-12.63,-191.62,-113.94,-17.02,8.94,-37.61
5410,-15.75,-132.12,-75.94,-16.72,8.79,-38.29
5420,-15.81,-57.81,-35.75,-15.39,8.1,-36.1
5430,-14.44,28.5,2.81,-14.75,7.32,-33.05
5440,-9.94,110.19,37.19,-14.17,6.35,-29.94
5450,-9.94,110.19,37.19,-13.6,5.52,-27.15
5460,-32.56,205,87.12,-12.46,3.41,-21.73
5470,-58.63,216.87,109.31,-11.62,2.36,-19.88
5480,-80.87,212.62,125.19,-10.88,1.49,-18.47
5490,-95.25,199.81,131.19,-9.51,0,-16.45
5500,-101.25,184.25,129.44,-8.73,-0.41,-15.95
5510,-100.56,172.19,121.5,-8.29,-0.61,-15.5
5520,-95.19,169.12,109.25,-8.07,-0.51,-14.78
5530,-86.12,168.69,96.31,-8.35,0.12,-13.54
5540,-75.87,162.5,89.25,-8.23,0.4,-13.33
5550,-75.87,162.5,89.25,-7.88,0.37,-13.17
5560,-60.75,144.75,99.56,-7.05,-0.24,-13.05
5570,-54.19,139.81,108,-6.41,-0.64,-12.97
5580,-46.13,144.81,115,-5.97,-0.98,-12.68
5590,-35,159.75,118.69,-5.49,-1.36,-12.22
5600,-35,159.75,118.69,-4.64,-2.13,-10.67
5610,-23,178.06,120.62,-3.87,-2.68,-9.66
5620,-7,208.94,103.5,-3.42,-2.32,-8.75
5630,-0.19,212.31,90.25,-3.17,-2.62,-6.92
5640,2.81,216,82.5,-2.64,-2.43,-6.52
5650,2.81,216,82.5,-2.8,-2.48,-6.66
5660,1.31,223.62,72.69,-1.46,-2.83,-3.11
5670,-10.81,193.94,66.75,-1.97,-2.88,-2.17
5680,-5.19,137.19,56.06,-1.54,-3.2,-1.28
5690,3.12,96.44,50.06,-0.99,-3.57,-0.49
5700,3.12,96.44,50.06,-1.05,-4.24,-0.09
5710,13.69,40.19,36.13,-1.03,-4.53,-0.35
5720,48.63,-83.37,-12.81,-1.34,-4.49,-1.42
5730,67.81,-151.56,-49.56,-2.96,-2.96,-5.77
5740,76.81,-212.94,-84.87,-3.86,-2.11,-7.84
5750,76.81,-212.94,-84.87,-4.59,-1.44,-9.65
5760,73.5,-264.37,-111.81,-5.71,-0.69,-10.9
5770,57.81,-392.75,-138.37,-7.75,1.53,-15.02
5780,72.19,-454.5,-144.37,-9.36,1.41,-17.83
5790,95.81,-371.5,-124.56,-7.87,0.72,-20.42
5800,95.81,-371.5,-124.56,-7.87,0.72,-20.42
5810,80.94,-335,-103.37,-7.93,0.34,-22.5
5820,15.63,-258.06,-109.06,-8.32,1.03,-21.26
5830,15.31,-247.31,-129.5,-8.96,1.75,-21.75
5840,37.56,-252.94,-156.5,-10.43,3.94,-25.47
5850,37.56,-252.94,-156.5,-10.43,3.94,-25.47
5860,58.94,-260.75,-184.56,-11.72,5.35,-27.48
5870,49.63,-243.81,-202.5,-14.87,9.09,-32.88
5880,26.75,-213.69,-184.19,-15.9,9.88,-33.56
5890,3.69,-167.12,-152.37,-16.88,10.26,-34.01
5900,3.69,-167.12,-152.37,-16.88,10.26,-34.01
5910,-12.06,-111,-104.81,-17.61,9.19,-35.37
5920,-61,-4,6.87,-17.09,7.35,-33.67
5930,-86.62,55.88,43.94,-16.82,7.27,-30.47
5940,-71.37,118.5,71.81,-15.57,5.2,-27.09
5950,-71.37,118.5,71.81,-15.57,5.2,-27.09
5960,-37.5,167.5,101.44,-14.94,4.02,-26.22
5970,-61.06,229.12,140.06,-13.43,1.64,-20.23
5980,-77.37,240.25,154.37,-12.7,0.94,-19.46
5990,-78.31,239.31,161.87,-11.94,0.48,-19.19
6000,-78.31,239.31,161.87,-11.94,0.48,-19.19
6010,-71.56,241.5,156.37,-11.4,0.36,-19.01
6020,-71.56,241.5,156.37,-10.32,0.14,-17.46
6030,-69.81,254.94,155.19,-9.79,0.51,-16.51
6040,-71.25,292.25,153.25,-9.22,0.66,-14.07
6050,-65.5,310.75,158.87,-9.22,0.66,-14.07
6060,-55.19,330.06,169.19,-8.52,0.54,-12.82
6070,-55.19,330.06,169.19,-6.67,-0.23,-10.52
6080,-38.06,359.44,189.31,-5.31,-1.35,-7.72
6090,-35.25,371.81,194.12,-4.35,-1.94,-6.61
6100,-36.56,386.56,197.87,-4.35,-1.94,-6.61
6110,-36.75,433.12,198.62,-4.11,-2.73,-6.35
6120,-36.75,433.12,198.62,-0.4,-3.82,0.32
6130,-12.75,308.5,155.62,0.48,-4.08,1.76
6140,6.44,253.31,133.87,1.82,-4.27,3.03
6150,23.56,177.5,107.25,1.82,-4.27,3.03
6160,32.81,98.25,80.75,1.75,-4.41,2.74
6170,33,24.94,52.94,1.24,-4.59,1.77
6180,28.31,-41.25,25.06,0.63,-4.44,0
6190,22.81,-103.19,-0.69,-0.03,-4.29,-1.18
6200,23.06,-153.69,-22.75,-0.03,-4.29,-1.18
6210,32.44,-194.5,-42.31,-0.44,-4.16,-2.27
6220,47.56,-233.62,-62.31,-2.23,-3.41,-6.42
6230,62.63,-269.75,-83.12,-3.08,-2.99,-7.66
6240,73.37,-305.25,-101.31,-3.93,-2.61,-8.88
6250,78.19,-349.19,-115.06,-3.93,-2.61,-8.88
6260,79.69,-405.19,-123.94,-6.12,-1.69,-11.01
6270,84.12,-489.56,-127.81,-8.34,-1.35,-14.88
6280,98.75,-476.87,-129,-8.98,-2.05,-20.15
6290,85.75,-443.56,-119.19,-9.68,-2.13,-21.67
6300,42.63,-431,-124.19,-9.68,-2.13,-21.67
6310,-3.06,-414.62,-140.5,-9.61,-2.04,-22.32
6320,-21.87,-399.87,-169,-11.11,0.68,-24.58
6330,-3.44,-379.19,-201.94,-11.99,1.76,-26.13
6340,38.44,-338.25,-223.25,-12.64,2.64,-27.66
6350,76.56,-281.94,-230.31,-12.64,2.64,-27.66
6360,91.87,-228.19,-225.56,-14.01,4.65,-29.55
6370,81.25,-190.87,-211.81,-15.19,5.93,-30.24
6380,50.25,-173.12,-192.19,-16.62,7.07,-32.35
6390,7.19,-165.12,-168,-17.21,7.38,-33.16
6400,-36.56,-149.94,-137.69,-17.21,7.38,-33.16
6410,-67.31,-115.69,-99.81,-17.57,7.59,-33.88
6420,-77.56,-58.38,-57.25,-17.07,7.11,-32.99
6430,-66.56,14,-12.31,-16.53,6.35,-31.34
6440,-47.94,93.06,33.63,-15.95,5.15,-29.22
6450,-39.19,163.06,73,-15.95,5.15,-29.22
6460,-50,213.69,103.25,-15.24,2.73,-23.98
6470,-71.31,235.5,128.31,-13.73,0.93,-20.13
6480,-91.31,237.44,147.94,-12.92,0.17,-18.85
6490,-103.94,231.31,158.56,-11.65,-1.16,-16.88
6500,-106.81,222.56,161.37,-11.65,-1.16,-16.88
6510,-102.25,214,156.81,-10.85,-1.42,-16.66
6520,-94.37,212.62,147.81,-10.32,-1.33,-16.47
6530,-87.12,218.19,141.25,-9.58,-1.22,-15.82
6540,-81.12,226.44,136.62,-8.9,-1,-15.35
6550,-72.19,238.87,133.56,-8.39,-0.72,-14.64
6560,-55.75,254.69,133.12,-7.86,-0.55,-13.72
6570,-33.44,269.25,134.62,-6.89,-0.56,-11.53
6580,-12.25,279.69,138.12,-6.03,-0.79,-10.83
6590,0.88,289.94,139.5,-5.29,-1.13,-10.15
6600,3.19,294.94,138.62,-3.84,-1.85,-8.34
6610,-4.62,294.87,135.31,-3.48,-2.28,-7.61
6620,-17.25,298.56,126.19,-1.86,-2.6,-6.8
6630,-21.56,323.25,112.94,-0.62,-3.07,-4.1
6640,-14.44,269.37,99.69,0.43,-3.07,-2.81
6650,2.56,207.69,73.69,0.75,-2.59,-2.07
6660,8.31,163.75,57.69,1.04,-2.26,-1.62
6670,-1.19,107.25,42,0.94,-1.73,-1.06
6680,-17.06,45.38,31.19,0.77,-1.65,-0.92
6690,-26.75,-14.63,21.87,0.57,-1.73,-0.8
6700,-22.37,-72.31,10.88,0.34,-2.03,-1.59
6710,-5.56,-128.19,-1.44,-0.04,-2.17,-2.99
6720,17.56,-176.75,-15.88,-0.51,-2.21,-4.93
6730,37.19,-213.69,-31.31,-1.01,-2.12,-7
6740,48.44,-242.31,-45.25,-1.77,-1.89,-10.36
6750,52.19,-280.75,-59.38,-2.59,-1.55,-10.74
6760,57.75,-344.5,-73.25,-3.12,-1.05,-10.66
6770,77.87,-315.81,-83.19,-5.33,-0.27,-15.07
6780,79.81,-281.81,-78.12,-4.72,-0.52,-16.91
6790,56.75,-260.31,-79.75,-5.15,-0.46,-18.3
6800,22.94,-229,-82.87,-5.63,-0.03,-18.63
6810,2.62,-205.12,-83.62,-6.25,1.4,-16.92
6820,8.56,-190.19,-75.5,-6.75,1.83,-16.28
6830,26.62,-184.56,-61.81,-6.92,1.5,-16.1
6840,39.25,-190.44,-55.81,-7.03,0.62,-16.91
6850,40.31,-208.06,-56.75,-7.16,0.23,-17.57
6860,33.75,-235.94,-64.75,-7.42,0.06,-18.51
6870,25.69,-257.5,-75.81,-8.25,0.3,-21.85
6880,15.06,-263.62,-88.25,-8.52,0.39,-23.5
6890,1.31,-253.62,-106.06,-8.99,0.84,-24.88
6900,-12.25,-239.06,-125.19,-9.7,1.49,-26.04
6910,-22.69,-223.12,-146.31,-11.68,3.57,-28.75
6920,-26.56,-199.37,-164.44,-13.03,4.95,-29.74
6930,-23.69,-169.06,-169.37,-14.31,6.33,-30.87
6940,-18.44,-126.75,-157.75,-15.83,8.87,-33.21
6950,-20.69,-68.56,-127.06,-16.03,9.57,-33.53
6960,-29,-2,-80.75,-15.94,10.06,-32.87
6970,-27.62,69.81,-22.19,-15.78,10.29,-31.38
6980,-19.37,136.94,39.31,-14.37,8.03,-27.15
6990,-22.87,188.25,87.81,-13.42,6.07,-24.92
7000,-43.25,218.12,119.87,-12.54,4.32,-22.38
7010,-62.31,229.56,138.75,-10.86,1.42,-17.54
7020,-71.12,224.31,146.06,-10.14,0.39,-16.08
7030,-71.19,208.19,143.19,-9.43,-0.3,-15.23
7040,-68,189.87,135.62,-8.71,-0.89,-14.89
7050,-67.44,175.06,122.75,-7.79,-1.7,-14.61
7060,-67.94,165.06,108.19,-7.5,-1.65,-14.51
7070,-64.31,160.62,95.12,-7.21,-1.53,-14.26
7080,-52.81,162.81,84.56,-6.83,-1.18,-13.31
7090,-35.06,168.69,77.12,-6.59,-0.95,-13.07
7100,-18,177.87,73.19,-6.36,-0.84,-12.67
7110,-5.12,186.69,72.06,-5.77,-0.88,-11.36
7120,2.37,191.94,71.12,-5.64,-0.92,-10.79
7130,5.81,194.69,69.62,-5.55,-0.95,-9.96
7140,6.87,188.31,64.81,-4.48,-1.27,-9.01
7150,10.56,173.94,59.5,-3.9,-1.27,-7.47
7160,13,160.56,58.94,-3.93,-1.59,-7.02
7170,12,143.25,56.5,-3.43,-1.74,-6.56
7180,9.56,141.37,55.31,-3.25,-2.35,-6.58
7190,3.5,149.31,51,-2.93,-2.53,-6.29
7200,-1.87,124.75,45.19,-2.41,-2.75,-4.4
7210,4.19,65.31,30.25,-2.39,-2.6,-3.92
7220,19.37,28.94,14.94,-2.19,-2.49,-2.69
7230,36.69,-23.12,-4.81,-2.51,-2.19,-2.8
7240,55.44,-74.12,-22.44,-2.94,-1.84,-3.17
7250,75.12,-121.12,-35.38,-3.55,-0.89,-5.76
7260,89,-160.19,-42.75,-3.9,-0.66,-7.38
7270,93,-191,-47.31,-4.29,-0.56,-8.89
7280,90,-216.12,-50.88,-4.85,-0.36,-9.97
7290,83.81,-257.94,-50,-5.58,0.09,-10.46
7300,82.19,-304,-49.31,-6.7,0.17,-10.83
7310,82.94,-294.75,-42.75,-6.81,0,-13.52
7320,60.38,-293.94,-32.88,-6.81,-0.9,-17.86
7330,16.25,-294.31,-30.5,-6.95,-0.97,-19.34
7340,-27.87,-280.62,-37,-7.04,-0.9,-19.53
7350,-41.31,-263.87,-50.88,-7.71,0.19,-19.37
7360,-14.31,-241.75,-59.13,-8.28,0.46,-19.67
7370,32.75,-218.56,-62.44,-8.75,0.5,-20.55
7380,68.06,-199.94,-64.87,-9.09,0.42,-21.88
7390,73.56,-189.69,-68.25,-9.56,0.39,-24.56
7400,57.94,-182.37,-77,-9.71,0.72,-25.18
7410,42.69,-167.25,-86,-10.18,1.23,-25.64
7420,37.06,-140.56,-87.06,-11.29,2.2,-26.12
7430,36.06,-114.81,-82.06,-11.82,2.41,-26.53
7440,26.44,-96.94,-73.69,-12.36,2.5,-27.1
7450,4.69,-84.37,-64.12,-13,2.66,-27.78
7460,-23.12,-71.5,-53.38,-14.33,3.19,-28.94
7470,-46.25,-51.38,-40.81,-14.66,3.4,-29.37
7480,-60.13,-19.75,-24.94,-14.84,3.68,-29.76
7490,-63.75,27.44,-5.37,-14.67,4.04,-28.7
7500,-55.69,82.69,17.06,-14.2,3.97,-27.16
7510,-39.19,135.37,38.75,-13.78,3.6,-25.47
7520,-30.37,177.62,58.06,-13.34,2.86,-23.79
7530,-38.25,199.5,72.37,-12.41,1.3,-20.03
7540,-54.69,203.37,81.94,-11.88,0.78,-18.61
7550,-69.25,193.81,88,-11.45,0.41,-17.54
7560,-78.75,181.12,92.19,-10.88,-0.28,-16.75
7570,-89.12,170.31,95.12,-10.51,-0.49,-16.82
7580,-100.69,166.25,95.5,-10.12,-0.62,-16.69
7590,-105.44,168.69,93.62,-9.71,-0.61,-15.68
7600,-96.75,177.31,92,-9.46,-0.51,-15.13
7610,-73.19,193.56,91.19,-9.15,-0.4,-14.51
7620,-40.63,214,92.62,-8.78,-0.45,-13.82
7630,-8.63,229.94,92.56,-8.18,-0.87,-12.39
7640,15.5,239.5,91.81,-7.95,-1.08,-11.89
7650,28.87,244.19,91.5,-6.95,-1.55,-11.42
7660,33.13,242.12,86.5,-5.64,-2.18,-9.96
7670,29.62,233.5,82.69,-4.78,-2.58,-9.36
7680,18.87,217.5,70.31,-3.89,-2.56,-8.73
7690,6.06,197.44,57.13,-3.23,-2.43,-8.22
7700,-6.37,175.25,45.63,-2.56,-1.94,-7.04
7710,-13.38,155.25,36.56,-2.26,-1.67,-6.53
7720,-10.75,144.62,31.56,-1.99,-1.37,-6.25
7730,-2.31,145.44,30.5,-1.67,-1.38,-6.11
7740,3.75,150.75,32.75,-1.16,-1.72,-5.99
7750,4.94,132,32.13,-0.4,-1.96,-4.48
7760,8.19,83.25,20.37,-0.18,-1.93,-4.24
7770,15.63,56.81,7.31,0.09,-1.69,-2.86
7780,26.81,13.81,-8.13,-0.08,-1.51,-2.66
7790,42.31,-29.94,-22.81,-0.23,-1.29,-2.57
7800,58.69,-77.62,-34.69,-0.92,-0.76,-3.47
7810,73.94,-125.06,-45.44,-1.55,-0.37,-4.67
7820,80.62,-172.31,-52.38,-2.33,-0.11,-6.34
7830,73.69,-215.37,-56.63,-3.96,0.57,-10.04
7840,56.63,-253.25,-54.81,-4.97,0.66,-11.12
7850,35.75,-304.06,-46.81,-5.65,0.61,-11.24
7860,26.06,-370.5,-39.13,-6.88,0.57,-11.03
7870,39,-336.56,-25,-7.76,-0.58,-15.95
7880,37.81,-321.62,-10.06,-7.08,-1.37,-18.09
7890,23.25,-301.19,-5.31,-8.07,-1.82,-19.58
7900,7,-268.94,-4.12,-7.87,-2.77,-20.35
7910,3.62,-241.31,-15.13,-8.06,-2.92,-20.2
7920,21.81,-218.37,-30.75,-8.23,-3.04,-20.1
7930,57.38,-195.31,-50.38,-7.99,-3.16,-20.16
7940,92.62,-178.5,-74.94,-8.54,-2.35,-21.42
7950,111.25,-171.94,-99.56,-9.08,-1.29,-22.19
7960,104.19,-178.87,-112.56,-9.64,-0.27,-23.26
7970,74.19,-189.75,-113.5,-10.55,1.52,-25.97
7980,33.5,-196.5,-107.87,-11.07,2.12,-27.04
7990,-0.44,-193.25,-98.25,-11.44,2.49,-27.97
8000,-19.81,-179.69,-89.19,-11.9,2.66,-29.04
8010,-27.12,-154.44,-83.5,-12.89,3.49,-31.91
8020,-30.87,-113.44,-75.44,-13.29,3.86,-32.94
8030,-35.56,-59.44,-65.25,-13.68,4.41,-33.42
8040,-36.13,5.5,-49.38,-14.41,5.85,-31.74
8050,-28.94,72.56,-22.06,-14.59,6.12,-30.16
8060,-23.56,132.12,14.19,-14.54,5.8,-28.41
8070,-35.31,176.31,53.31,-13.8,3.62,-24.18
8080,-66.06,197.06,90.56,-13.17,2.3,-22.13
8090,-96.69,202.56,119.56,-12.33,1.16,-20.14
8100,-107.94,200.75,137.69,-11.56,0.14,-18.73
8110,-107.94,200.75,137.69,-10.52,-1.92,-17.3
8120,-102.81,198.25,146.81,-10.04,-2.62,-17.13
8130,-87.94,198.12,143.69,-9.83,-3.18,-17.08
8140,-85.44,198.81,134,-8.92,-4.1,-16.47
8150,-81.12,201.19,117.56,-8.78,-4.03,-16.21
8160,-72.12,203.5,98.62,-8.27,-3.82,-16.01
8170,-58.19,206.5,75.56,-7.69,-3.45,-15.77
8180,-35.81,217.06,51.56,-7.35,-1.67,-14.41
8190,-6.87,232.25,36.38,-7,-0.76,-14.02
8200,17.12,253.19,31.87,-6.87,-0.07,-13.58
8210,17.12,253.19,31.87,-6.23,0.32,-11.62
8220,26.44,276.94,36.94,-5.85,0.24,-10.56
8230,5.12,302.62,59.38,-4.86,0.03,-9.15
8240,-8,307,66.62,-4.12,-0.51,-7.48
8250,-15.5,310.5,77.75,-3.02,-1.27,-6.19
8260,-15.5,310.5,77.75,-2.94,-1.65,-4.38
8270,-20.25,344.5,84.81,-0.91,-1.98,-2.96
8280,-35.56,215.62,78.87,-0.52,-2.11,-1.49
8290,-48.13,176.37,68.62,0.25,-2.25,-0.54
8300,-59.63,122.31,52.06,0.63,-2.4,0.32
8310,-59.63,122.31,52.06,1.05,-2.31,1.5
8320,-60.75,57.38,28,0.62,-1.79,1.5
8330,-10.69,-81.12,-26.37,-0.16,-1.11,0.6
8340,36.5,-137.87,-42.69,-0.85,-0.46,-1.18
8350,76,-180.37,-50.88,-2.03,0.27,-5.81
8360,76,-180.37,-50.88,-2.03,0.27,-5.81
8370,91.25,-216.69,-52.31,-3.18,0.04,-9.91
8380,48.88,-276.81,-45.81,-3.58,-0.21,-12.07
8390,16.12,-317.37,-47.56,-3.97,-0.06,-11.61
8400,3.12,-378.69,-56,-5.19,0.26,-11.25
8410,3.12,-378.69,-56,-5.19,0.26,-11.25
8420,25.62,-361.19,-62.44,-5.7,0.56,-14.02
8430,43.63,-314.12,-57.69,-7.48,1.2,-19.88
8440,31.87,-283.25,-51.13,-7.62,1.28,-20.34
8450,30.56,-253.12,-46.13,-7.85,1.58,-20.3
8460,30.56,-253.12,-46.13,-7.85,1.58,-20.3
8470,51.56,-219.62,-37.81,-7.7,0.64,-20.23
8480,97.81,-177.94,-24,-7.54,0.03,-20.65
8490,90.31,-179.56,-23.06,-8.05,-0.38,-21.78
8500,67.75,-192.37,-23.69,-8.19,-0.54,-22.4
8510,67.75,-192.37,-23.69,-8.19,-0.54,-22.4
8520,42.13,-208.06,-28.31,-8.58,-0.51,-23.26
8530,14.38,-215.25,-43.75,-9.01,-0.21,-27.18
8540,9.38,-202.69,-57.69,-9.27,-0.11,-28.8
8550,0.75,-182.31,-80.19,-10.5,1.37,-31.84
8560,0.75,-182.31,-80.19,-10.5,1.37,-31.84
8570,-10.31,-153.56,-104,-11.45,2.65,-32.81
8580,-22.44,-68.87,-122.06,-13.24,5.65,-33.89
8590,-20.44,-10.25,-102.06,-14.19,7.57,-33.05
8600,-12.63,56.63,-64.19,-14.21,7.8,-31.54
8610,-12.63,56.63,-64.19,-14.21,7.8,-31.54
8620,-5.12,122,-14.69,-13.94,7.31,-29.7
8630,-12.5,173.62,35.69,-12.46,2.74,-22.88
8640,-43.13,201.19,79.5,-11.73,1.3,-20.97
8650,-77.87,206.87,109,-10.87,0.12,-19.57
8660,-96.87,204.19,124.06,-10.87,0.12,-19.57
8670,-98.56,203.06,125.25,-9.49,-1.87,-17.74
8680,-91.37,205.94,113.69,-8.53,-1.97,-16.53
8690,-82.06,208.69,96.56,-8.38,-1.02,-14.81
8700,-72.75,213.44,78.5,-8.14,-0.48,-14.17
8710,-61.31,217.25,65.75,-8.14,-0.48,-14.17
8720,-47.31,218.81,59.44,-7.88,0.04,-13.64
8730,-31.94,221.69,58.25,-7.39,0.86,-11.98
8740,-19.25,222.44,62.69,-7.08,0.86,-11.58
8750,-13,219.44,72.25,-6.48,0.69,-11.16
8760,-11.25,213.75,84.44,-6.48,0.69,-11.16
8770,-9.88,208.44,96.44,-6.11,-0.16,-10.3
8780,-7.12,208.44,105.87,-4.53,-1.32,-9
8790,0.81,210,107.81,-3.23,-2.53,-7.99
8800,11.69,209.06,110.25,-2.56,-2.78,-7.36
8810,15.63,209.87,105.44,-2.56,-2.78,-7.36
8820,10.63,203.87,93.5,-2.11,-2.86,-6.84
8830,4.19,207.5,81,-1.31,-2.72,-4.01
8840,1.94,232.06,66.56,-0.7,-2.4,-3.41
8850,3.19,188.19,53.13,-1.27,-1.88,-2.72
8860,15.5,121.94,32.5,-1.27,-1.88,-2.72
8870,28.81,83.19,20.69,-1.1,-1.33,-2.1
8880,34,36.25,12.56,-1.53,-1.31,-2.07
8890,31.62,-14.63,9.88,-1.71,-1.54,-2.06
8900,30.37,-66.69,8.25,-2.04,-2.23,-3.66
8910,38.31,-118.12,4.87,-2.04,-2.23,-3.66
8920,49.5,-164.56,-0.88,-2.1,-2.66,-5.17
8930,54.44,-200.12,-11.69,-2.9,-2.43,-8.99
8940,51.56,-223.56,-29.12,-3.55,-1.82,-9.72
8950,44.19,-237.62,-47.63,-4.1,-1.08,-10.36
8960,32.19,-256.81,-62.19,-4.1,-1.08,-10.36
8970,17.94,-289.56,-68.37,-4.88,-0.31,-10.82
8980,6.62,-351.94,-65.87,-7.91,0.81,-13.96
8990,8.69,-408.94,-56.13,-9.32,0.08,-16.36
9000,18.69,-373.75,-30.94,-8.89,-1.96,-21.1
9010,-2.37,-372.12,-6.81,-8.89,-1.96,-21.1
9020,-38.63,-366.37,-1.5,-9.09,-2.67,-22.1
9030,-63.69,-351.62,-14.56,-9.61,-2.68,-25.44
9040,-63.38,-339.5,-40.5,-10.52,-1.82,-27.65
9050,-42.44,-332.5,-79.87,-11.65,-0.6,-29.84
9060,-16.25,-310.75,-125.5,-11.65,-0.6,-29.84
9070,3.25,-270.06,-161.87,-12.88,0.92,-31.63
9080,13.69,-218.25,-179.94,-15.54,5.1,-33.78
9090,18.5,-162.31,-178.06,-15.94,5.7,-34.02
9100,17.5,-115.44,-161.87,-15.64,6.21,-35.31
9110,5.81,-81.31,-138.31,-15.64,6.21,-35.31
9120,-16.87,-46.06,-114,-15.34,6.37,-35.22
9130,-37,-0.06,-93.19,-15.23,7.15,-32.78
9140,-40.38,56.56,-69.31,-15.23,7.15,-32.78
9150,-25.81,114.12,-39.44,-15.28,7.19,-28.89
9160,-10.38,165.31,-3.87,-15.18,6.33,-27.49
9170,-17.75,200.81,34.44,-14.63,4.87,-26.1
9180,-49.19,221.37,65.5,-13.67,2.13,-22.04
9190,-79.19,232.19,86.37,-13.1,1.19,-20.25
9200,-91.12,236.12,99,-12.32,0.35,-18.95
9210,-86.56,238.19,101.37,-11.73,-0.19,-18.18
9220,-78.44,244.5,98.62,-10.79,-0.99,-16.67
9230,-72,254.75,92.37,-10.35,-0.91,-15.77
9240,-64.37,266.25,86.31,-9.88,-0.78,-14.82
9250,-53.56,276.69,82.25,-9.07,-0.67,-12.38
9260,-40.38,283.56,79.12,-8.49,-0.48,-11.4
9270,-26.81,285.81,78.31,-7.85,-0.32,-10.54
9280,-15.44,286.19,80.44,-6.87,-0.48,-8.89
9290,-9.31,282.75,84.62,-6.31,-0.56,-8.24
9300,-9.5,275.25,87.87,-5.36,-0.76,-7.52
9310,-12.44,267.69,90.12,-4.79,-0.93,-6.81
9320,-21.31,252.75,95.37,-3.63,-1.45,-6.61
9330,-36.44,261,97.56,-3.14,-1.65,-6.58
9340,-54.75,260.06,98,-2.77,-1.8,-4.86
9350,-63.75,200.69,98.06,-2.35,-1.93,-2.94
9360,-56.38,172.37,95,-2.1,-1.9,-2.08
9370,-43.69,141.56,93.69,-2.01,-2.03,-1.62
9380,-33.75,100.94,92.44,-1.78,-2.3,-1.3
9390,-27.81,54.13,87.69,-1.4,-3.03,-0.98
9400,-21.5,3.37,77.19,-1.3,-3.42,-1.07
9410,-7.19,-49,60.06,-1.29,-3.85,-1.57
9420,15.56,-95.75,35.81,-1.67,-4.14,-3.85
9430,40.06,-130.31,11,-2.05,-4.15,-5.21
9440,56.69,-153.75,-13.69,-2.31,-3.91,-6.32
9450,65.19,-170.44,-37.94,-2.72,-3.36,-7.01
9460,68.06,-188.94,-56.56,-3.73,-1.86,-8.04
9470,68.87,-213.81,-67.12,-4.3,-1.44,-8.61
9480,67.75,-246.81,-71.87,-4.73,-1.26,-9.49
9490,62.81,-285.06,-76,-5.85,-0.58,-11.15
9500,56.44,-339.75,-79.37,-6.27,-0.32,-11.17
9510,55.31,-422.12,-83.62,-7.62,0.06,-12.42
9520,68.56,-412.19,-82.12,-8.46,0.02,-19.11
9530,61.63,-385.94,-64.56,-8.26,-0.52,-21.24
9540,28.31,-365.94,-59.5,-8.14,-0.81,-22.37
9550,-7.62,-337.25,-68.44,-8.15,-0.72,-22.34
9560,-19.56,-312.62,-88.44,-9.05,0.78,-22.54
9570,-2.31,-300.5,-110.62,-10.04,1.71,-23.6
9580,25.31,-294.69,-127.25,-10.95,2.57,-25.28
9590,37.31,-287.56,-133.19,-12.83,4.37,-29.61
9600,26.19,-276.19,-127.19,-13.9,4.85,-31.26
9610,2.25,-255.12,-110.06,-14.87,5.03,-32.53
9620,-20.19,-225.69,-89.12,-15.75,5.1,-33.84
9630,-36.81,-186.19,-66.69,-16.9,4.74,-37.04
9640,-52.75,-135.25,-45.38,-16.86,4.52,-38.02
9650,-67.37,-70.5,-28.06,-16.55,4.5,-38.17
9660,-68.31,11.5,-12.44,-16.22,4.86,-34.49
9670,-47.69,99.75,7.62,-15.73,4.56,-31.42
9680,-21.69,172.5,30.5,-15.15,3.87,-28.67
9690,-15.75,224.75,50.5,-14.75,3.1,-26.18
9700,-31.87,253.44,68.69,-14.19,1.37,-21.04
9710,-54.13,261.19,85.69,-13.57,0.39,-19.16
9720,-70.37,255.25,96.69,-12.77,-0.49,-17.84
9730,-78.69,241.44,96.56,-11.32,-1.61,-16.18
9740,-80.06,229.25,87.69,-10.91,-1.61,-15.86
9750,-75.37,227.69,75.31,-10.62,-1.34,-15.49
9760,-66.5,234.19,64.81,-10.34,-0.73,-13.99
9770,-55.63,241.31,59.06,-9.97,-0.43,-13.47
9780,-44.13,248.69,58.44,-9.52,-0.2,-12.8
9790,-32.19,258.37,60.63,-9.12,-0.06,-12
9800,-19.5,267.94,65.37,-8.21,-0.2,-10
9810,-8.56,274.44,71.62,-7.79,-0.29,-9.37
9820,-4.37,278.56,77.06,-7.5,-0.39,-8.74
9830,-7.94,281.81,84.31,-5.97,-1.36,-6.31
9840,-11.56,277.75,85.69,-5.37,-1.59,-5.9
9850,-12.06,278.5,89.69,-4.53,-2.2,-5.87
9860,-10.94,304.25,85.62,-4.17,-2.55,-4.62
9870,-9.63,236.19,72.75,-3.07,-2.28,-2.62
9880,-7.5,175.31,54.63,-3.06,-2.02,-2.21
9890,-14,127.69,46.63,-2.59,-1.95,-1.84
9900,-23.25,74.62,42.63,-2.66,-2.43,-1.74
9910,-28.69,25.37,39.56,-2.42,-2.89,-1.69
9920,-25.37,-19.62,32.75,-2.29,-3.31,-1.74
9930,-10.06,-59.94,18.19,-2.17,-3.62,-1.99
9940,17.25,-95.19,-2.25,-2.49,-3.83,-3.5
9950,49.75,-125.06,-25.62,-2.85,-3.51,-4.63
9960,75.25,-149.81,-48.69,-3.38,-2.9,-5.69
9970,89.37,-169.87,-67,-4.33,-1.42,-7.13
9980,94.62,-193,-78.37,-5.02,-0.83,-7.72
9990,96.87,-221.62,-84.37,-5.96,-0.3,-8.49
10000,98.31,-255,-81.94,-6.93,0.2,-10.82
