timestamp,gyrox,gyroy,gyroz,accx,accy,accz
10,-0.56,-0.06,0.25,0,0,0
20,-0.25,-0.06,0.25,0,0,0
30,-0.13,-0.37,0.13,0,0,0
40,-0.06,-0.06,0.31,0.08,-0.96,-19.52
50,0.06,-0.19,0.44,0.08,-0.96,-19.54
60,-0.06,-0.25,0.44,0.11,-0.97,-19.55
70,-0.25,-0.25,0.62,0.11,-0.97,-19.53
80,-8.69,-131.37,-67.69,-3.77,6.19,-22.16
90,-33.88,-40.63,-30.12,-3.45,6.21,-22.23
100,-33.88,-40.63,-30.12,-2.77,5.85,-18.94
110,-24.5,37.38,-7.31,-2.88,4.11,-13.64
120,1.5,121.37,17.06,-3.11,3.37,-11.24
130,18.75,186.19,37.31,-3.11,3.37,-11.24
140,3.5,218.5,53.06,-3.27,2.6,-8.83
150,-27.19,224.81,70.25,-2.37,-0.59,-3.98
160,-49.56,219.75,85.25,-2.19,-1.33,-3.26
170,-55.81,212,91.69,-2.06,-1.75,-2.7
180,-53.38,207.5,86.44,-2.06,-1.75,-2.7
190,-50.06,210.81,58.44,-2.58,-1.25,-1.84
200,-50.06,210.81,58.44,-3.63,-0.5,-0.72
210,-60.56,220.69,48.69,-3.47,-0.07,0.95
220,-62.5,225.87,53.94,-3.81,0.21,1.65
230,-55.81,232.62,58.25,-3.81,0.21,1.65
240,-39.38,248.5,64.56,-4.09,0.5,2.36
250,-39.38,248.5,64.56,-4.34,-0.2,5.01
260,-19.56,270,76.75,-4.75,-0.63,6.03
270,9.69,309.19,98.06,-4.89,-1.18,7
280,16.37,322.81,104.37,-4.89,-1.18,7
290,18.87,330,105.75,-4.39,-2.3,9.21
300,19.12,324.87,102.44,-4.74,-2.79,10.09
310,15.94,331.31,105.5,-4.84,-3.71,12.51
320,2.44,336.37,104.75,-4.5,-3.63,12.22
330,-18.44,252.06,95.69,-4.5,-3.63,12.22
340,-41.63,213.06,84.44,-5.31,-3.66,12.96
350,-64.75,174.94,76.12,-5.93,-4.27,15.43
360,-81.19,122.5,67.19,-6.21,-4.7,16.09
370,-84,63.13,59.69,-6.04,-5.27,16.67
380,-68.62,0.75,49.94,-6.04,-5.27,16.67
390,-32.81,-59.56,34.69,-6.09,-6.29,16.57
400,14.44,-117.62,15.06,-5.93,-7.24,13.88
410,54.81,-172.37,-10.56,-6.1,-7.27,11.82
420,73.12,-218.06,-39.44,-5.69,-6.52,8.22
430,67.87,-257.81,-70.56,-5.69,-6.52,8.22
440,52.25,-297.12,-104.81,-5.59,-5.51,7.09
450,40.5,-331.75,-134.31,-6.32,-1.28,6.03
460,40.56,-378.37,-150.44,-6.8,0.04,5.18
470,54.94,-421.94,-155.5,-7.05,0.6,2.95
480,73.56,-381,-137.19,-7.05,0.6,2.95
490,67.25,-372.75,-106.94,-6.79,0.79,-0.82
500,45.81,-355.69,-77.44,-4.93,-0.63,-2.85
510,18.44,-339.94,-56.31,-3.48,-1.36,-3.54
520,-4.75,-340.5,-59.19,-2.56,-1.28,-6.14
530,-15.56,-349,-83.75,-2.56,-1.28,-6.14
540,-13.25,-355.06,-119.19,-2.25,-0.5,-7.88
550,-3.62,-352.31,-151.87,-2.59,0.67,-10
560,4.37,-334.25,-173.56,-3.59,3.53,-14.71
570,4.56,-306.12,-179.94,-3.67,5.11,-16.79
580,4.69,-269.12,-171.5,-4.32,6.42,-18.49
590,12.31,-229.75,-149.62,-4.79,7.35,-20.21
600,13.06,-188.94,-121.31,-5.77,7.77,-25.08
610,-7.62,-141.06,-92.81,-5.49,7.87,-27.17
620,-35.06,-70.06,-63.75,-5.2,8.07,-28.04
630,-41.69,25.25,-31.69,-4.74,8.57,-25.19
640,-18.87,130.75,5.56,-4.92,8.33,-21.84
650,6.19,219.19,45.19,-5.11,7.26,-18.23
660,-4.37,277.25,79.94,-5.22,5.68,-15.26
670,-43.5,303,109.19,-4.98,2.76,-8.49
680,-71.87,307,131.5,-4.85,1.28,-5.33
690,-75.31,301.31,142.31,-4.55,-0.13,-3.09
700,-66.75,292.87,141.56,-3.39,-2.1,-0.73
710,-59.94,285.31,130.94,-3.32,-2.69,-0.11
720,-59.38,284.81,115.94,-3.36,-2.85,0.54
730,-60.63,291.19,102.75,-3.63,-2.28,2.48
740,-58.75,300.31,96.37,-4.06,-2.05,3.62
750,-49,311.62,94.5,-4.59,-1.78,4.66
760,-30.69,324.44,97.25,-5.08,-1.53,5.68
770,-10.31,333.87,102.19,-5.54,-1.5,7.91
780,7.94,339.5,107.75,-5.67,-1.55,8.89
790,21.56,340.56,113.44,-6.13,-1.67,9.63
800,26.87,340,120.19,-6.29,-2.33,10.52
810,24.87,367.19,125.06,-6.89,-2.74,10.33
820,16.19,360.12,124.06,-7.02,-3.22,13.32
830,9.31,275.31,121.37,-6.47,-3.02,12.99
840,-4.12,236.62,121.56,-7.18,-3.55,14.52
850,-25.87,188.62,121.62,-6.75,-3.85,15.2
860,-46.75,129.5,119.94,-7.31,-4.36,15.52
870,-59.25,71.06,111.75,-6.61,-5.72,16.55
880,-57.94,7.31,93.25,-6.44,-6.39,17.12
890,-36.31,-59.88,64.75,-6.31,-6.76,17.26
900,1.62,-121,29.75,-6.17,-7.1,16.95
910,40.44,-184.19,-5.37,-6.04,-6.85,13.89
920,64.31,-250.5,-38.81,-5.78,-6.25,11.44
930,74.06,-301.19,-74.37,-6.15,-5.11,9.19
940,75.37,-335,-96.5,-7.24,-2.67,5.73
950,70.12,-371,-101.5,-7.19,-1.88,5.34
960,64.25,-433.19,-100.12,-6.55,-1.22,5.51
970,68.19,-410.94,-93.75,-7.13,-0.34,0.7
980,55.63,-376.44,-74.87,-5.5,-0.5,-1.34
990,25.12,-349.62,-64.12,-5.06,-0.51,-2.48
1000,-3.25,-319,-57.06,-4.37,-0.82,-2.62
1010,-9,-303.06,-57.38,-4.42,-1,-2.14
1020,8.75,-313.62,-60.25,-3.85,-1.31,-3.05
1030,34.06,-332.81,-72.12,-3.03,-1.5,-4.97
1040,43.75,-345.31,-91.56,-1.91,-1.26,-10.96
1050,25.56,-348.06,-120.12,-1.75,-0.17,-14.05
1060,-10.44,-328.06,-147.56,-1.71,1.29,-16.48
1070,-38.69,-287,-156.75,-2.18,2.93,-17.91
1080,-87.81,-385.06,-167.44,-0.19,-1.38,-29.33
1090,-309,-546.62,-326.19,-13.57,4.28,-30.01
1100,-451.19,-230.19,-316.81,-5.6,12.88,-30.25
1110,-221.62,162.25,-154,-5.78,14.71,-9.39
1120,185.81,398.19,-32.44,-3.3,9.82,-4.96
1130,390.94,465,15,-3.57,5.95,-6.09
1140,318.31,380.25,15.25,-3.19,4.86,-6.89
1150,107.25,240.44,34.81,-2.24,4.36,-7.39
1160,-116.81,123.94,70.81,-1.99,3.28,-6.53
1170,-258.19,47.44,103.62,-1.57,1.84,-5.54
1180,-280,24.87,121.81,-1.27,-0.29,-5.92
1190,-217.75,56.56,123.31,-1.13,-1.54,-6.65
1200,-128.37,125.94,108.37,-1.12,-2.48,-7
1210,-57.94,201.44,84.37,-2,-2.02,-4.97
1220,-21.69,261.12,61.94,-2.9,-1.02,-3.26
1230,-13.13,293.37,48,-3.63,0.08,-1.59
1240,-19.37,303.12,46.25,-4.46,0.99,-0.13
1250,-33.44,299.87,57,-5,1.39,2.52
1260,-48.81,289.31,73.44,-5.15,1.1,3.9
1270,-56,274.87,91.87,-5.25,0.75,5.12
1280,-53.69,259.5,109.87,-5.05,-0.02,6.85
1290,-46.75,245.87,127.56,-5.2,-0.47,7.09
1300,-39.25,237.56,142.12,-5.14,-1.09,7.15
1310,-34.19,234.37,148.94,-4.97,-1.74,7.36
1320,-30.81,237,148.37,-5.46,-2.78,8.42
1330,-30,238.94,146.94,-4.67,-3.44,9.07
1340,-28.19,235.12,136.81,-5.24,-3.51,10.18
1350,-24.06,242.5,136.06,-5.16,-4.21,10.28
1360,-23.87,261.12,133.44,-5.53,-4.66,11.54
1370,-28.31,198.12,122.19,-4.95,-4.84,11.95
1380,-38.5,157.12,105.5,-5.55,-4.95,12.45
1390,-51.69,119.81,89.12,-5.74,-5.33,14.53
1400,-56.63,69.25,72.12,-5.92,-5.44,15.53
1410,-47.75,5.56,54.88,-5.66,-5.62,16.38
1420,-21.06,-61.38,35.13,-5.87,-6.25,16.65
1430,15.94,-130.25,12.5,-5.7,-6.63,15.71
1440,49,-196.81,-14.5,-5.99,-6.68,13.96
1450,66.19,-251.94,-38,-6.26,-6.46,9.77
1460,65.12,-299.69,-60.94,-6.18,-6.15,8.19
1470,52.88,-345,-85.37,-5.88,-5.7,6.81
1480,36.13,-403.06,-110.62,-5.55,-4.98,5.91
1490,29.06,-492,-133.5,-5.86,-2.45,4.59
1500,50.19,-496.12,-155.31,-6.75,-1.37,1.72
1510,67.44,-467.37,-147.31,-7.28,-0.59,-1.44
1520,58.44,-438.06,-127.5,-5.8,-0.3,-6.86
1530,27.62,-391.37,-110.75,-3.82,-0.48,-7.87
1540,-4.31,-347,-111,-2.88,-0.27,-8.24
1550,-12.81,-309,-120.31,-2.76,0.22,-8.34
1560,8.5,-280.37,-129.87,-2.26,1.32,-9.54
1570,43.38,-252,-136.62,-2.01,2,-10.87
1580,65.06,-223.12,-131.81,-1.46,2.51,-12.51
1590,55.31,-207.12,-126.19,-1.38,3.74,-15.89
1600,23.44,-198.69,-122.5,-1.4,4.55,-17.35
1610,-5.44,-184.81,-117.81,-1.73,5.37,-18.71
1620,-19.06,-157,-108.44,-2.11,5.96,-20.33
1630,-25.12,-109.5,-90.19,-3.05,6.83,-23.6
1640,-31.44,-45.38,-63.88,-3.05,7.05,-24.27
1650,-34,37.25,-32,-3.09,7.2,-23.48
1660,-27.44,123.94,3.62,-3.04,6.63,-18.25
1670,-22.69,194.56,38.31,-2.96,5.47,-15.34
1680,-37.69,245.12,65.87,-3.1,4.13,-12.37
1690,-63.63,268.94,85.94,-2.59,1.81,-6.12
1700,-77.19,271.81,99.19,-2.53,0.72,-3.94
1710,-76.25,264.06,104.19,-2.38,-0.24,-2.42
1720,-71.69,251.12,101,-2.29,-0.91,-1.54
1730,-70.25,239.94,92.75,-1.94,-1.45,-0.25
1740,-70.5,234.37,83.31,-2.26,-1.43,0.34
1750,-69.62,235,77.19,-2.49,-1.25,1.06
1760,-66.62,239.62,72.37,-3.02,-0.59,2.98
1770,-58.38,246.37,74.19,-3.37,-0.49,3.95
1780,-46.63,250.37,82.62,-3.78,-0.59,4.85
1790,-33,252.87,90.81,-4.24,-0.77,5.7
1800,-20.31,250.75,101.5,-4.42,-1.51,7.33
1810,-8.88,240.81,111.62,-4.22,-2.17,7.64
1820,1.31,235.06,116.12,-4.85,-2.59,7.9
1830,8.94,235,118.37,-4.02,-3.8,9.38
1840,17.87,228.81,113.75,-4.16,-4.02,9.86
1850,28.62,224,107.94,-3.9,-4.49,10.22
1860,34.44,231,91.81,-4.46,-4.34,10.05
1870,28.94,244.87,77.69,-5.14,-3.62,10.59
1880,9.69,198.69,67.19,-4.65,-3.4,11.6
1890,-7.44,133.69,50.75,-5.2,-2.99,12.08
1900,-17.12,90.06,42.75,-5.92,-2.91,13.14
1910,-22.37,36.44,38.94,-5.8,-3.01,13.33
1920,-21.31,-22.12,34.31,-5.8,-3.18,13.25
1930,-10.19,-74.94,26.19,-5.27,-3.45,12.3
1940,8.38,-123.31,13.69,-5.34,-3.33,11.39
1950,28.62,-166.5,1.69,-5.31,-3.19,10.03
1960,39.25,-206.81,-7.25,-5.03,-3.16,8.56
1970,34.56,-241.81,-17.69,-4.85,-2.87,5.6
1980,18.69,-276.69,-31.19,-4.45,-2.45,5.23
1990,5.69,-332.06,-48.31,-4.04,-1.79,5.59
2000,15.31,-379.87,-66.69,-3.98,-0.49,3.08
2010,43.81,-341.94,-71.31,-4.89,-0.29,1.75
2020,56.44,-332.06,-61.38,-4.5,-0.11,0
2030,49.88,-300.5,-49.75,-4.45,-0.1,-1.66
2040,26.94,-258.56,-44.25,-2.91,-0.36,-1.96
2050,13.06,-227.69,-41.56,-2.55,-0.39,-1.06
2060,25.81,-216.56,-37.44,-2.11,-0.69,-0.43
2070,54.06,-223.06,-34.19,-1.08,-1.66,-2.06
2080,74.06,-239.44,-36.06,-0.48,-1.87,-3.62
2090,74.06,-239.44,-36.06,-0.48,-1.7,-5.48
2100,56.06,-266.94,-58.06,-0.48,-1.34,-7.4
2110,22.87,-276.62,-75.94,-0.98,0.07,-11.11
2120,-9.44,-278.56,-92.75,-1.45,1.08,-12.92
2130,-33,-269.56,-97.69,-1.66,1.95,-14.8
2140,-44.44,-249.19,-95.06,-2.43,3.3,-18.72
2150,-43.38,-210.56,-87.06,-2.52,3.75,-20.65
2160,-33.25,-151.94,-74.94,-2.58,3.95,-22.38
2170,-23.87,-83.06,-63,-2.54,4.38,-24.17
2180,-19.87,-3.69,-53.38,-2.62,4.81,-23.15
2190,-19.87,-3.69,-53.38,-2.72,5.29,-21.15
2200,-11.5,83.19,-40.81,-2.97,5.61,-18.3
2210,15.38,226.87,-2.87,-3.3,4.98,-12.92
2220,3.56,266.5,21.69,-3.73,4.31,-10.21
2230,-25.19,276.56,48.5,-3.82,3.51,-7.68
2240,-25.19,276.56,48.5,-3.42,1.63,-3.94
2250,-53.13,268.94,72.5,-3.29,0.59,-2.77
2260,-82.06,242.75,101.56,-3.22,-0.31,-2.01
2270,-89.87,234.37,103.94,-3.35,-0.99,-1.34
2280,-93,233,101.87,-3.14,-1.66,0.31
2290,-93,233,101.87,-3.14,-1.66,0.31
2300,-88.75,236.69,96.37,-3.08,-1.93,1.92
2310,-53.38,261.44,76.37,-3.33,-1.62,3.41
2320,-29.94,279.5,68.5,-3.7,-1.34,4.17
2330,-10.94,297.12,64.25,-4.21,-1.1,5
2340,-10.94,297.12,64.25,-4.21,-1.1,5
2350,1.12,310.87,64.62,-4.62,-0.97,5.87
2360,8.44,331.75,63.31,-5.34,-0.89,9.24
2370,8.94,333.12,64.25,-5.75,-0.89,10.09
2380,6.44,346.19,71.37,-7.35,-1.38,10.41
2390,6.44,346.19,71.37,-7.35,-1.38,10.41
2400,-3.06,351.69,85.62,-6.27,-1.77,13.19
2410,-4.75,227.87,105.44,-7.26,-2.56,14.33
2420,-14,185.69,109.81,-7.04,-2.68,14.62
2430,-34.19,137.25,113.12,-7.01,-3.07,15.13
2440,-34.19,137.25,113.12,-7.01,-3.07,15.13
2450,-56.19,81.06,110.94,-7.3,-3.68,15.44
2460,-75.06,-44.63,90.06,-6.84,-5.69,16.47
2470,-56.44,-108.62,70.06,-6.77,-6.35,16.39
2480,-21.94,-168.94,42.13,-6.5,-7.1,14.83
2490,-21.94,-168.94,42.13,-6.5,-7.1,14.83
2500,14.63,-232.31,9.31,-6.61,-7.14,13.18
2510,51.44,-346.81,-60.38,-6.26,-6.19,9.12
2520,43.69,-394.87,-91.25,-6.25,-4.82,5.89
2530,26.75,-455.44,-121.19,-6.28,-3.69,5.56
2540,26.75,-455.44,-121.19,-6.28,-3.69,5.56
2550,16.06,-543.31,-149.81,-6.69,-2.22,5.16
2560,28.75,-518.62,-158.69,-6.96,0.04,-4.53
2570,13.81,-514,-150.25,-5.8,0.31,-7.69
2580,-9.25,-489.31,-151.06,-5.22,0.76,-10.75
2590,-9.25,-489.31,-151.06,-5.22,0.76,-10.75
2600,-24.44,-438.81,-154.62,-4.71,2.17,-15.01
2610,-15.06,-376.31,-156.87,-3.87,3.94,-18.38
2620,21.25,-303,-154.19,-4.03,4.73,-20.62
2630,64.69,-215.69,-136,-3.55,4.49,-21.63
2640,87.81,-139.25,-106,-3.55,4.49,-21.63
2650,71.44,-85.19,-79.56,-3.23,4.37,-22.08
2660,28.19,-44.63,-57.5,-2.1,4.38,-20.2
2670,-12.38,-9.38,-36.88,-1.94,4.22,-19.3
2680,-36.06,28.5,-19.37,-1.73,4,-17.87
2690,-44.63,73.25,-3.62,-1.73,4,-17.87
2700,-43,121.31,9.44,-1.04,3.55,-14.17
2710,-39.88,166.44,18.87,-1.38,2.79,-9.52
2720,-39.38,199,27.81,-1.62,1.91,-5.09
2730,-38.38,215.19,36.94,-1.67,1.38,-3.42
2740,-32.63,216,45.13,-1.67,1.38,-3.42
2750,-23.12,205.56,51.88,-1.49,0.76,-2.45
2760,-18.5,190.94,52.44,-2.06,-0.16,-2.51
2770,-27.44,178.25,49.38,-2.5,-0.3,-2.68
2780,-51.56,171.81,49.31,-2.78,-0.3,-2.4
2790,-79.56,175.69,51.25,-2.78,-0.3,-2.4
2800,-92.31,191.75,55.88,-3.21,-0.24,-0.34
2810,-83.06,216.62,63,-3.73,-0.83,1.75
2820,-60.19,246.69,69.69,-3.61,-1.7,4.42
2830,-36.25,274.94,74,-3.59,-2.06,5.78
2840,-19.81,293.19,74.87,-3.59,-2.06,5.78
2850,-9.5,299.44,69.5,-3.77,-2.18,7.04
2860,-0.94,296.94,61.19,-3.81,-2.17,9.88
2870,6.19,285.69,55.63,-4.12,-2.31,10.26
2880,7.69,269.75,53.31,-3.67,-2.6,10.47
2890,2.69,259.12,48.69,-3.67,-2.6,10.47
2900,2.5,261.69,41.06,-4.14,-2.7,12.65
2910,8.5,213,43.13,-4.04,-2.62,12.96
2920,18,150.62,35.88,-4.21,-2.7,12.91
2930,20.5,111.5,31.75,-4.05,-2.65,12.91
2940,11.06,71.87,22.94,-4.05,-2.65,12.91
2950,-5.37,31.62,9.88,-4.23,-2.43,12.94
2960,-20.25,-12.19,-0.44,-4.62,-1.97,12.99
2970,-21.94,-54.63,-7.5,-4.69,-2.1,12.52
2980,-6.62,-89.81,-10.31,-4.59,-2.26,11.77
2990,15.81,-120.25,-12.88,-4.59,-2.26,11.77
3000,32.56,-151.56,-16.87,-4.59,-2.31,10.85
3010,39.69,-183.06,-21.31,-4.29,-2.44,7.86
3020,38.88,-216.56,-30.25,-3.92,-2.22,6.79
3030,33.69,-253.62,-41,-4.1,-1.26,5.67
3040,25.5,-301.31,-53.38,-4.1,-1.26,5.67
3050,19.94,-378.69,-65,-4.23,-0.61,5.23
3060,29.06,-414.25,-75.12,-5.18,0.56,-1.19
3070,31.31,-369.31,-66.12,-3.72,0.24,-4.74
3080,7.75,-348.94,-50.63,-3.34,0.24,-5.37
3090,-20.62,-319.5,-43.44,-3.34,0.24,-5.37
3100,-31.31,-282.75,-32.75,-2.49,0.06,-5.56
3110,-16.44,-246.81,-25.31,-1.59,-0.79,-5.98
3120,13.69,-223.37,-25.56,-0.89,-1.35,-6.72
3130,40.88,-213.12,-37.44,-0.53,-1.49,-7.81
3140,55.81,-208.31,-57,-1.34,-0.42,-10.26
3150,56.19,-201.5,-70.62,-1.45,0.1,-11.59
3160,42.5,-199.75,-77.62,-1.6,0.62,-13.14
3170,18.75,-196.44,-82.06,-1.71,1.2,-14.94
3180,-8.94,-184.44,-81.69,-2.22,2.03,-17.98
3190,-33.38,-161.62,-81.12,-2.54,2.65,-19.15
3200,-48.38,-123.31,-77.44,-2.52,3.15,-20.16
3210,-52.44,-66.62,-71.06,-2.72,4.4,-20.68
3220,-46.13,4.87,-59.38,-2.77,4.91,-19.61
3230,-27.75,86,-40.81,-2.86,5.23,-17.69
3240,-2.81,165.37,-17.94,-3.27,5.25,-15.23
3250,11.19,225.87,8.25,-3.86,4.15,-10.59
3260,-1.56,253.69,37.56,-4.07,3.15,-8.52
3270,-34.69,254.87,65.12,-3.97,2.05,-6.7
3280,-70.44,244.62,86.87,-3.14,0.09,-3.78
3290,-96.56,235.56,100.56,-2.94,-0.8,-2.64
3300,-108.25,231.94,104.62,-2.89,-1.46,-1.63
3310,-105.62,234.25,101.69,-2.93,-1.92,-0.76
3320,-93.37,242.12,93.56,-2.71,-2.2,0.9
3330,-75.56,253.56,82,-3.04,-2.14,1.67
3340,-56.81,264.62,71.06,-3.18,-2,2.46
3350,-39.44,273.12,60.75,-3.31,-1.32,4.15
3360,-22.56,280.06,54,-3.67,-1,4.87
3370,-6.81,284.87,52.63,-4.04,-0.85,5.51
3380,6.44,287.19,56.25,-4.04,-0.94,6.69
3390,17.12,294.87,60.44,-3.88,-0.89,7.29
3400,25.94,316.87,57.75,-4.6,-0.44,8.24
3410,26.5,335.19,61.81,-5.73,-0.33,9.1
3420,12.94,341.5,72.69,-5.56,-1.08,10.16
3430,-2.56,355.62,80.25,-6.39,-1.36,11.59
3440,-18.44,297.06,102.75,-5.58,-2.14,12.06
3450,-29.94,235,106.81,-5.62,-2.69,13.47
3460,-40,187.37,107.5,-5.53,-3.07,13.66
3470,-49.25,139.06,104.81,-5.35,-3.61,13.98
3480,-55.38,89,92.5,-5.09,-3.98,14.51
3490,-52.63,31.12,75.25,-4.97,-4.64,15.43
3500,-33.5,-26.25,54.88,-5.08,-4.85,15.37
3510,-0.81,-76.62,33.75,-5.17,-5.02,14.96
3520,31.44,-127.31,12.56,-5.59,-5.28,12.62
3530,51.19,-180.94,-10.5,-5.83,-4.99,11.05
3540,54.06,-234.31,-31.19,-5.69,-4.74,9.48
3550,43.44,-285,-51.69,-5.57,-4.32,8.02
3560,27.81,-330.25,-70.69,-6.03,-3.23,5.58
3570,16.56,-371.69,-85.5,-6.09,-2.58,5.52
3580,17.44,-433.56,-97.81,-5.71,-1.85,5.78
3590,37.06,-468.06,-110.87,-7.67,0.05,1.22
3600,58.31,-429.19,-110.37,-8.46,0.83,-0.14
3610,66.56,-428.75,-94.81,-7.54,1.39,-1.56
3620,75.56,-419.81,-65.62,-7.6,0.62,-5.3
3630,85.44,-402.19,-26.94,-5.6,-0.63,-7.14
3640,90.12,-375.75,-2.12,-4.03,-1.79,-8.94
3650,90.81,-338.31,-0.31,-2.73,-2.66,-10.4
3660,92.75,-284.5,-19.94,-1.66,-3.01,-11.26
3670,96.5,-233.94,-47.38,-1.36,-2.42,-11.2
3680,98.56,-206.62,-70.19,-1.32,-1.59,-11.84
3690,90.06,-202.5,-83.31,-1.3,-0.13,-15.04
3700,66.19,-207.69,-90.62,-1.11,0.55,-17.13
3710,32.44,-205.75,-91.25,-1.05,1.17,-19.14
3720,-4.25,-185.56,-87.94,-0.92,1.73,-21
3730,-37.75,-143.69,-83.5,-0.82,3.03,-23.42
3740,-59.88,-79.5,-80.31,-0.78,3.93,-23.31
3750,-59.06,7,-76.81,-1.37,5.01,-22.04
3760,-33.69,103.31,-63.5,-2.89,6.36,-17.66
3770,-4.44,185.25,-35.38,-3.3,6.06,-15.55
3780,-2.75,241.69,-2.37,-3.71,5.36,-13.37
3790,-34.31,269.75,32.13,-3.87,4.29,-10.93
3800,-74.19,281.31,62.19,-3.51,2.09,-5.95
3810,-99.87,283.31,83.87,-3.38,1.02,-4.18
3820,-106.87,279.62,97.06,-3.43,0.05,-2.82
3830,-101.62,278.25,103.06,-2.99,-1.45,-1.18
3840,-95.5,280.62,102.87,-3.04,-2,-0.49
3850,-94.44,282.94,95,-3.02,-2.25,0.28
3860,-92.94,288.62,81.75,-3.26,-1.8,2.64
3870,-81.06,299.06,70.62,-3.6,-1.65,3.77
3880,-58.81,311.81,63.31,-3.89,-1.45,4.87
3890,-32.19,322.94,58.69,-4.22,-1.3,5.8
3900,-8.63,329.87,56.81,-4.36,-1.24,7.57
3910,6.56,329.5,56.81,-4.66,-1.25,8.26
3920,12.94,320.44,59.69,-4.87,-1.41,8.87
3930,12.06,306.62,64.81,-4.65,-2.25,9.94
3940,6,287.81,67.06,-4.15,-2.77,9.82
3950,-0.88,275.19,60.88,-4.25,-3,9.6
3960,-9.19,271.62,48.06,-4.35,-3.1,9.76
3970,-13.75,285.56,31.37,-5.34,-2.42,12.63
3980,-11.81,257.69,19.25,-5.89,-2.05,13.22
3990,-9.06,220.44,8.56,-6.61,-1.44,14.46
4000,-8.06,174,14.25,-7.23,-1.51,15.55
4010,-13,118.62,27.25,-7.15,-1.7,15.92
4020,-25.19,47.25,35.94,-6.78,-2.23,16.17
4030,-37.5,-37.13,38,-6.7,-2.91,16.19
4040,-40.31,-125.62,30.44,-5.72,-4.56,14.28
4050,-31.19,-211,11.13,-5.71,-4.89,12.25
4060,-15.25,-276.56,-18.56,-5.73,-4.54,10.17
4070,-2.25,-319.06,-49.44,-6.08,-3.19,6.48
4080,4.37,-344.06,-80,-6.01,-2.09,5.58
4090,8.5,-361.75,-105.81,-6.42,-0.83,5.48
4100,15,-400.19,-116.06,-7.89,1.22,5.22
4110,26.31,-449.94,-108.19,-7.38,1.35,2.64
4120,38.19,-448.19,-86,-7.97,0.9,0.77
4130,27.25,-452.44,-63.5,-6.65,0.31,-1.43
4140,-3.5,-472.69,-55.63,-6.29,0.05,-5.9
4150,-32.38,-468.56,-59.63,-5.37,0.16,-7.31
4160,-41.5,-436.25,-64.44,-4.31,0.32,-8.39
4170,-25.5,-387.75,-65.12,-3.57,0.11,-10.75
4180,6.12,-327.5,-62.88,-2.74,-0.11,-11.73
4190,37.19,-266.19,-65.06,-2.28,-0.1,-12.54
4200,51.94,-216,-69.06,-2.13,0.08,-13.23
4210,46.13,-183.81,-71.94,-1.92,0.44,-14.41
4220,26.62,-167.62,-77.37,-1.98,1,-15.02
4230,7,-159.19,-86.69,-2.31,1.86,-15.88
4240,-7,-149,-88.31,-3.15,3.15,-19.04
4250,-20.06,-131.5,-78.75,-2.96,3.39,-21
4260,-36.69,-92.87,-64.19,-2.66,3.62,-22.24
4270,-48.25,-19.69,-48.56,-2.69,3.97,-21.8
4280,-42.25,69.56,-27.81,-2.88,4.04,-16.91
4290,-18.25,151.56,-3.62,-2.96,3.4,-14.23
4300,1.25,209.44,14.94,-3.25,2.68,-12.1
4310,-3.5,238.37,31,-2.86,1.09,-8.47
4320,-26.12,251,44.06,-2.76,0.37,-6.57
4330,-49,258,52.5,-2.67,-0.24,-4.79
4340,-61.38,264.87,56.94,-2.52,-1.11,-1.63
4350,-63.13,270.69,57.5,-2.55,-1.47,-0.62
4360,-61.63,272.62,54.81,-2.46,-1.77,0.16
4370,-64.44,272.81,47.25,-2.45,-1.78,0.98
4380,-68.19,275.62,37.13,-2.59,-1.22,3.46
4390,-63.81,279.81,30,-2.75,-0.97,4.76
4400,-45.25,281.19,26.94,-2.88,-0.81,5.79
4410,-17.12,283,26.37,-2.85,-0.73,7.39
4420,11.19,284.62,27.62,-3.02,-0.75,7.9
4430,32.25,280.81,30.44,-3.15,-0.92,8.3
4440,42.13,270.62,34.75,-3.32,-1.12,8.57
4450,41.75,259.87,38.88,-2.89,-1.74,9.27
4460,35.88,263.12,32.19,-3.2,-1.51,9.84
4470,25,288,20.56,-3.55,-1.23,10.05
4480,7.19,322.87,14.38,-3.99,-0.78,13.56
4490,-12.88,253.44,15.81,-3.97,-0.49,14.05
4500,-26.37,180.94,14.5,-5.01,-0.43,14.68
4510,-32.19,125.81,18.25,-5.33,-0.5,14.95
4520,-30.25,74.25,24.81,-5.26,-0.77,15.49
4530,-22.44,18.37,35.06,-5.46,-1.55,15.6
4540,-11,-37.88,42.5,-5.5,-2.11,15.52
4550,4.56,-96.5,41.56,-4.87,-3.27,13.79
4560,21,-155.69,32.75,-4.77,-3.51,12.23
4570,32.13,-206.12,14.38,-4.86,-3.3,10.51
4580,30.44,-249.87,-3.75,-5.18,-2.79,7.73
4590,17.69,-292.31,-17.69,-5.17,-2.43,6.77
4600,6.5,-332,-31.19,-5.03,-2.05,5.99
4610,2.62,-382,-43.56,-5.14,-1.42,6.04
4620,12.63,-458.62,-53.5,-5.76,0.23,1.46
4630,40.06,-440.56,-55.13,-7.48,0.51,-0.33
4640,46.06,-406.62,-37.69,-5.7,0.3,-2.34
4650,46.06,-406.62,-37.69,-4.98,-0.7,-5.81
4660,9.25,-373.25,3.5,-3.84,-1.6,-7.04
4670,-8.38,-347.5,11.63,-2.66,-2.38,-7.99
4680,-9.75,-320.12,-1.12,-2.02,-2.66,-8.94
4690,9.19,-288.12,-24.44,-1.63,-2.39,-11.05
4700,40.75,-244.06,-45.38,-1.36,-2.07,-12.01
4710,67.06,-198.75,-64.87,-1.14,-1.39,-12.85
4720,73.37,-166.81,-80,-1.73,0.3,-14.84
4730,58.19,-148.62,-88.19,-1.91,1.12,-16
4740,29.44,-141.25,-90.62,-2.16,1.75,-17.5
4750,29.44,-141.25,-90.62,-2.55,2.92,-20.71
4760,-4.06,-136.37,-89.75,-2.39,3.71,-21.79
4770,-54.44,-65,-79.25,-2.42,4.58,-21.84
4780,-58.06,9.44,-67.19,-2.68,5.45,-20.84
4790,-43.31,93.94,-44.69,-2.94,6.18,-15.86
4800,-43.31,93.94,-44.69,-3.2,5.64,-13.06
4810,-17.44,176.25,-14.25,-3.6,4.7,-10.32
4820,-7.69,271.81,47.69,-3.35,2.42,-5.82
4830,-34.81,274.69,73.44,-3.21,1.14,-4.14
4840,-66.69,261.12,92.5,-2.91,-0.15,-2.92
4850,-66.69,261.12,92.5,-2.68,-1.12,-1.97
4860,-91.31,243.25,99.94,-2,-1.89,-0.5
4870,-94.44,229.19,85.81,-2.14,-1.97,0.01
4880,-77.06,238.69,72.5,-2.44,-1.72,0.62
4890,-56.5,258.44,60.44,-2.81,-1.05,2.84
4900,-56.5,258.44,60.44,-3.2,-0.87,4.19
4910,-37.38,280.37,54.56,-3.51,-0.77,5.59
4920,-2.81,306.87,54.31,-3.63,-0.7,6.74
4930,10.5,309.12,56.75,-3.57,-0.88,9
4940,16.87,299.87,59.38,-3.53,-0.96,9.66
4950,16.87,299.87,59.38,-3.53,-0.96,9.66
4960,16.56,284.25,61.63,-3.7,-1.07,10.21
4970,0.94,271.37,64.69,-4.24,-1.72,10.77
4980,-12.44,259.5,68.31,-3.9,-2.04,12.54
4990,-24.37,190.44,66.87,-3.81,-2.09,12.69
5000,-24.37,190.44,66.87,-3.81,-2.09,12.69
5010,-26.81,145.06,57.94,-4.2,-1.93,13.81
5020,-9.19,73.69,53,-4.83,-2.47,14.1
5030,-3.56,32.06,50.5,-4.66,-3.05,14.34
5040,-1.37,-17.31,44.44,-4.92,-3.47,14.19
5050,-1.37,-17.31,44.44,-4.92,-3.47,14.19
5060,3.62,-64.81,32.5,-4.63,-3.64,13.98
5070,17.31,-171.56,0.56,-5.07,-3.63,10.05
5080,18.37,-217.31,-14.31,-4.79,-3.51,8.64
5090,12.5,-259.06,-27.37,-4.53,-3.28,7.31
5100,12.5,-259.06,-27.37,-4.53,-3.28,7.31
5110,5.37,-297.62,-40.63,-4.83,-2.47,5.94
5120,5.62,-349.5,-49.94,-3.15,-1.57,2.99
5130,21.44,-409.25,-60.94,-4.27,-0.48,-2.65
5140,47.44,-385.75,-77.69,-3.51,-0.17,-4.44
5150,49.63,-367.75,-78,-3.51,-0.17,-4.44
5160,26.44,-339.06,-72,-2.88,0.23,-5.35
5170,-2.37,-309.12,-66.87,-1.31,0.74,-5.53
5180,-11.69,-268.87,-59.13,-0.65,0.57,-5.94
5190,5.12,-232.5,-51.69,-0.49,0.44,-6.99
5200,36.81,-211.44,-49.63,-0.49,0.44,-6.99
5210,61.06,-198.25,-51.75,-0.76,0.45,-9.87
5220,61.19,-195.56,-55.56,-0.96,1.23,-13.37
5230,40.69,-199.5,-59.94,-1.54,2.25,-16.68
5240,10.94,-198.62,-62.69,-2,2.84,-18.07
5250,-16.37,-186.69,-63.81,-2,2.84,-18.07
5260,-32.13,-157.56,-60.31,-2.34,3.27,-19.34
5270,-36,-115.12,-50.5,-3.08,3.75,-21.22
5280,-33.69,-58,-34.19,-2.9,3.54,-20.05
5290,-30.37,13.69,-11.94,-2.79,3.06,-17.9
5300,-25.31,89.69,10.94,-2.79,3.06,-17.9
5310,-17.31,157.81,30.19,-2.54,1.78,-13.14
5320,-12.5,212.25,43.06,-3.13,0.86,-8.68
5330,-19.5,248.31,50.94,-3.29,0.47,-6.59
5340,-35.75,268.62,58,-3.19,0.04,-2.91
5350,-53.38,276.69,64.25,-3.19,0.04,-2.91
5360,-64.31,279.44,68.62,-3.26,-0.19,-1.29
5370,-66.56,282.87,72.75,-3.16,-0.85,2.7
5380,-61.94,287.25,75.87,-3.28,-1.03,4.05
5390,-53.31,293.62,77.25,-3.38,-1.17,5.31
5400,-41.44,299.06,77.44,-3.38,-1.17,5.31
5410,-28.5,300.87,76.56,-3.41,-1.26,6.41
5420,-17.25,300.12,74.12,-3.64,-1.44,9.39
5430,-10.5,295.56,72.69,-3.6,-1.56,10.11
5440,-9.5,284.19,72.37,-3.63,-1.99,10.78
5450,-11.44,269.44,70.62,-3.63,-1.99,10.78
5460,-12.63,268.62,68.94,-4.44,-2.11,10.76
5470,-15.19,271.44,69.06,-4.3,-2.38,12.8
5480,-18.87,224,68.25,-4.66,-2.26,13.64
5490,-17.12,167.69,58.88,-4.66,-2.73,13.78
5500,-9.75,127.81,54.38,-4.66,-2.73,13.78
5510,-8.13,92,54.81,-5.08,-2.83,13.72
5520,-12.25,53.88,51.69,-5.52,-4.09,14.71
5530,-17,14.56,49.31,-5.48,-4.51,14.81
5540,-14.13,-25.56,42.81,-5.03,-5.81,14.38
5550,-4.06,-71.12,33.19,-5.03,-5.81,14.38
5560,8.69,-131.19,16.81,-4.83,-6.14,13.17
5570,23.25,-196.06,-10.13,-4.97,-5.09,9.43
5580,31.12,-257.06,-45.5,-6.34,-2.89,6.68
5590,32.63,-304.19,-79.37,-6.28,-2.23,6.22
5600,37.44,-334.87,-99.19,-6.28,-2.23,6.22
5610,45.63,-379,-106.37,-6.2,-1.63,6.04
5620,56,-454.69,-106.62,-6.28,-1.06,0.52
5630,68,-468.56,-103.06,-6.66,-1.07,-1.87
5640,59.38,-450.44,-99.62,-4.96,-0.93,-4.2
5650,33.56,-442.75,-100.87,-5.08,-0.61,-6.12
5660,7.12,-422.25,-103.5,-3.98,-0.26,-9.26
5670,-7.5,-392.94,-107.19,-3.16,-0.05,-10.81
5680,-8.94,-357.62,-117.5,-2.56,0.41,-12.4
5690,-2.12,-316.06,-134.25,-2.54,2.08,-15.19
5700,7.75,-277.19,-152.19,-2.82,3.24,-16.64
5710,19.19,-242.12,-165.56,-3.12,4.54,-17.91
5720,33.13,-203.75,-171.06,-3.81,6.1,-19.12
5730,49.44,-154.12,-156.31,-4.98,7.67,-21.94
5740,50.44,-97.19,-113.94,-4.88,7.56,-22.99
5750,21.5,-37.25,-58.44,-4.34,7,-23.01
5760,-25.5,26.12,-4.44,-3.08,4.68,-18.86
5770,-60.75,88.94,38.94,-2.49,3.25,-16.06
5780,-67.44,144.75,64.06,-2.14,2.13,-13.39
5790,-55.81,193.5,73.94,-1.85,0.66,-8.48
5800,-43.19,227.5,75.94,-2.09,0.21,-6.67
5810,-39.63,242.44,75.06,-2.43,-0.21,-5.05
5820,-48.06,244.62,74.81,-2.39,-0.57,-3.65
5830,-63,238.44,74.56,-2.33,-1.04,-1.37
5840,-76.12,230.56,75.75,-2.32,-1.5,-0.32
5850,-82.37,225.56,75.87,-2.21,-1.9,0.5
5860,-80.81,220.31,70.62,-1.81,-2.07,1.97
5870,-73.31,218.69,63.31,-1.97,-1.96,2.71
5880,-61.69,222.75,53.88,-2.31,-1.64,3.63
5890,-46.75,229.19,44.88,-2.46,-1.32,4.47
5900,-30,231.44,39.81,-2.37,-0.85,5.84
5910,-14.44,232.62,39.5,-2.5,-0.74,6.46
5920,-1.94,237.62,41.31,-2.68,-0.68,7.26
5930,7.44,242.44,45.06,-2.65,-0.74,9.01
5940,15.06,241.37,51.94,-2.96,-0.93,9.6
5950,19.62,237.19,58.56,-3.36,-1.33,10.13
5960,14.56,224.56,65.06,-2.99,-1.93,11.07
5970,6.56,217.69,62.44,-3.21,-2.29,11.01
5980,3.31,217.56,66.5,-3.44,-2.93,12.3
5990,-2.94,186.19,70.06,-3.14,-2.84,12.95
6000,-4.81,124.31,64,-4.14,-2.98,13.65
6010,-5.81,86.69,61.81,-4.06,-3.17,13.81
6020,-8.81,49.75,59.38,-4.15,-3.44,14.24
6030,-11.06,9.44,51.81,-4.15,-4.02,14.84
6040,-6.56,-39.44,41.5,-4.36,-4.4,14.79
6050,8.25,-88.25,29.25,-4.3,-4.69,14.25
6060,30.19,-139.06,13.69,-4.3,-4.95,13.08
6070,48.5,-191,-5,-4.36,-4.72,9.27
6080,53.25,-236.19,-25.37,-4.31,-4.26,7.74
6090,44.44,-274.31,-44.19,-4.3,-3.8,6.83
6100,33.38,-305.5,-58.94,-4.22,-2.83,6.22
6110,30,-349.37,-68.94,-3.59,-2.42,5.74
6120,36.06,-401.5,-80.75,-3,-2.03,2.34
6130,44.13,-391.75,-99.69,-3.95,-1.44,0.03
6140,25,-388.06,-108.75,-3.44,-0.32,-3.93
6150,-11.56,-382.62,-120.31,-3.03,0.64,-5.08
6160,-41.19,-376.06,-129.94,-3.17,1.52,-6.19
6170,-40.69,-348.06,-128.44,-3.35,2.58,-8.08
6180,-8.88,-305.87,-116.25,-3.3,2.46,-9.75
6190,36.63,-265.62,-98.69,-3.13,2.16,-11.82
6200,67.5,-231.69,-84.56,-3.12,2.3,-15.48
6210,68.81,-204.69,-79.06,-3.25,2.85,-16.48
6220,50.5,-173.94,-73.37,-3.58,3.32,-17.07
6230,29.06,-139,-59.38,-4.05,3.52,-17.62
6240,12.19,-104.12,-35.94,-4.12,2.69,-18.95
6250,-1.94,-66.37,-11.69,-3.97,2.1,-19.4
6260,-16.94,-24.25,7.06,-3.31,1.5,-19.49
6270,-32.69,21.5,17.75,-2.08,1,-17.2
6280,-39.81,74.19,17.62,-2.02,1.42,-14.73
6290,-28.44,130.62,10.25,-2.33,1.99,-12.39
6300,-4.31,180.25,4.31,-2.77,2.5,-10.41
6310,12.44,216.56,5.12,-2.99,3.02,-7.14
6320,9.63,230.69,13.88,-3.26,2.94,-5.89
6330,-7.94,231.31,29.37,-3.24,2.65,-4.67
6340,-29.81,228.62,47.31,-2.97,1.59,-2.69
6350,-48.88,228.06,63.5,-2.98,0.87,-1.88
6360,-63.81,229.62,76.62,-2.89,0.18,-1.2
6370,-75.94,232.44,83.62,-2.79,-0.37,-0.57
6380,-85,238.31,85.12,-2.42,-0.9,1.37
6390,-86.87,247.87,81.87,-2.46,-0.95,2.51
6400,-77.56,257.75,74.94,-2.55,-0.87,3.49
6410,-58.06,266.69,67.81,-2.38,-0.68,5.2
6420,-35.19,272.94,62.31,-2.62,-0.67,5.7
6430,-16.19,275.44,58.25,-2.96,-0.63,6.15
6440,-3.06,277.25,56.19,-2.97,-0.61,7.56
6450,5.06,283.56,54.19,-3.24,-0.32,8.66
6460,20.44,313.87,42,-3.81,0.15,9.77
6470,20.44,313.87,42,-4.72,0.49,10.38
6480,22.75,336.81,44.56,-6.49,0.17,12.45
6490,13.13,339.69,61.69,-4.9,-0.55,12.8
6500,-4.62,246.12,98.5,-5.43,-1.27,13.14
6510,-29,145.44,133.31,-5.39,-2.98,13.82
6520,-29,145.44,133.31,-5.18,-3.91,14.31
6530,-36.63,57.75,135.5,-4.88,-4.77,14.83
6540,-36.63,57.75,135.5,-4.74,-5.63,15.33
6550,-9.69,-59.44,94.44,-4.45,-6.94,15.57
6560,14.88,-120.44,66.37,-4.41,-7.49,15.03
6570,14.88,-120.44,66.37,-4.3,-7.88,14.34
6580,38.56,-178.62,30.5,-4.83,-7.67,11.69
6590,58.75,-305.37,-55.88,-5.73,-6.84,9.64
6600,36.81,-366.06,-87.69,-5.75,-6.19,7.76
6610,-1.12,-429.06,-116.81,-5.21,-5.51,6.34
6620,-37.5,-518.87,-141.37,-6.35,-3.24,5.42
6630,-49.75,-581.62,-163.5,-5.13,-2.17,2.53
6640,-53.5,-535.31,-181.69,-6.25,-1.78,-1.05
6650,-66.37,-508.5,-188,-5.8,-0.53,-5.15
6660,-69.5,-472.19,-193.19,-4.91,0.07,-6.86
6670,-55.13,-423.25,-196.19,-4.03,0.6,-8.69
6680,-22.62,-356.44,-199.31,-2.87,1.32,-10.65
6690,18.75,-271.31,-202.19,-1.99,3.05,-13.44
6700,61,-176.56,-199.25,-1.93,4.06,-13.36
6710,91.87,-105.75,-188.06,-1.76,4.85,-12.84
6720,103.5,-65.44,-173.25,-2.84,6.13,-11.57
6730,96.37,-50.25,-149.62,-3.16,6.77,-11.17
6740,71.62,-59.81,-114.19,-3.47,7.09,-11.51
6750,26.87,-80.31,-72.81,-4.03,6.62,-14.85
6760,-35.06,-96.44,-28.25,-3.76,5.86,-16.72
6770,-92.62,-89.12,11.5,-3.42,4.92,-18.13
6780,-118.44,-45.31,40.63,-3.08,4.11,-18.68
6790,-103.87,26.25,58.63,-2.63,3.01,-17.47
6800,-63.06,107.81,69,-2.46,2.38,-15.79
6810,-20.06,181.31,72.69,-2.56,1.81,-13.55
6820,4.87,236.31,73.62,-2.73,1.15,-8.95
6830,4.25,261.87,75.75,-2.71,0.86,-6.99
6840,-15.31,263.75,77,-2.81,0.75,-5.24
6850,-41.06,253.94,80.25,-3,0.68,-3.92
6860,-64.25,240.19,87.75,-2.76,0.45,-1.81
6870,-81.44,227.81,96,-2.9,0.09,-1.19
6880,-93.62,221.12,103.5,-2.95,-0.29,-0.72
6890,-100.56,222.37,109.19,-2.78,-0.9,0.39
6900,-100.56,229.56,112.5,-2.92,-1.27,1.23
6910,-90.25,238.25,111.5,-2.96,-1.5,2.2
6920,-70.69,245.81,107.31,-2.93,-1.68,3.05
6930,-44.94,257.75,100.19,-2.77,-1.7,4.94
6940,-16,269.94,92.75,-3.21,-1.44,5.84
6950,10.94,279.25,91.12,-4.13,-1.18,6.45
6960,32.13,282.12,91.06,-3.57,-1.11,8.19
6970,45.88,278.56,99.06,-4.3,-1.3,8.7
6980,44.06,269.69,106.5,-4.44,-1.62,8.81
6990,24.87,260.44,112.37,-4.42,-2.45,9.5
7000,-3.62,264.19,117.12,-4.35,-3.13,9.57
7010,-32.5,261.75,118,-4.89,-3.73,10.64
7020,-47.75,184.44,111.81,-4.2,-4.22,12.77
7030,-41.69,123.75,97.62,-4.47,-4.64,14.46
7040,-23.06,70.5,85.19,-4.77,-4.78,14.65
7050,-5.69,16.69,73.37,-4.61,-5.11,14.63
7060,2.62,-42.19,57,-4.52,-6.12,13.81
7070,5.75,-99.06,35.44,-4.55,-6.52,13.18
7080,10.19,-144.87,11.13,-4.46,-6.82,12.37
7090,17.31,-180.37,-17.25,-4.38,-6.86,11.66
7100,21.62,-217.31,-44.06,-4.83,-6.29,9.55
7110,18.44,-257.12,-67.12,-4.83,-6.01,8.5
7120,9.69,-297.19,-89.12,-4.84,-5.67,7.47
7130,0,-339.87,-107.37,-5.26,-4.42,6.07
7140,-2.94,-403.19,-122.44,-5.21,-3.7,6.25
7150,10,-459.25,-138.31,-4.56,-2.85,5.64
7160,30.44,-433.75,-156,-4.15,-2.41,2.35
7170,25.5,-430.37,-162.75,-4.69,-1.24,-2.79
7180,0.13,-414.37,-169.5,-4.49,-0.46,-4.77
7190,-27.37,-383.31,-172.81,-4.78,0.48,-5.94
7200,-37.13,-344.94,-162.69,-3.9,1.96,-6.79
7210,-37.13,-344.94,-162.69,-3.4,2.06,-7.43
7220,13.69,-254.37,-128.81,-2.54,1.94,-8.28
7230,38.31,-220.62,-123.62,-2.18,1.84,-10.81
7240,41.88,-197,-126.75,-2.25,2.13,-12.24
7250,23.12,-185.62,-132.94,-2.05,2.64,-13.48
7260,-4.25,-178.06,-142.37,-2.25,3.31,-14.76
7270,-20.12,-159.25,-151.87,-3.76,5.46,-16.29
7280,-17.19,-132.81,-148.81,-4.51,6.54,-17.42
7290,-12.56,-101.12,-128.31,-4.89,7.22,-19.08
7300,-25.31,-57.63,-98.25,-4.81,7.83,-21.55
7310,-25.31,-57.63,-98.25,-4.59,8.13,-21.24
7320,-50.25,-0.44,-64,-4.57,8.4,-19.81
7330,-53.63,138.5,16.87,-4.6,8.32,-17.31
7340,-26.56,204.06,56.19,-4.21,5.87,-12.33
7350,-15.06,248.25,84.62,-4.02,4.26,-10.12
7360,-15.06,248.25,84.62,-3.81,2.99,-7.99
7370,-28.06,269.19,102.62,-3.26,1.05,-4.42
7380,-75.94,264.12,121.62,-3.09,0.23,-3.17
7390,-94.19,254.5,124.12,-3,-0.44,-2.32
7400,-107.5,248.5,124,-2.55,-1.34,-0.99
7410,-107.5,248.5,124,-2.69,-1.64,-0.28
7420,-115.5,249.44,121.81,-3.08,-1.82,0.5
7430,-104.81,273.25,116.75,-3.23,-1.97,1.41
7440,-81.94,294.37,115.37,-3.53,-2.1,4.05
7450,-49.94,317.31,113.94,-3.91,-2.18,5.46
7460,-49.94,317.31,113.94,-4.29,-2.26,6.62
7470,-15.13,330.12,114.31,-3.72,-3.03,8.54
7480,38.69,325.19,102.37,-4.18,-2.92,9.05
7490,54.44,314.69,95.87,-4.41,-2.94,9.34
7500,53.88,298.31,92.19,-4.45,-3.05,9.67
7510,53.88,298.31,92.19,-3.71,-3.62,9.74
7520,39.63,289.19,86.12,-3.71,-3.62,9.74
7530,-9.44,257.06,67.5,-4.91,-3.63,11.53
7540,-23.37,199.12,58.75,-5.23,-3.15,13.3
7550,-23.19,164.5,54.5,-5.52,-3.11,13.87
7560,-23.19,164.5,54.5,-5.52,-3.11,13.87
7570,-17.25,125,52.63,-5.53,-3.24,14.44
7580,-1.44,15.75,40.31,-5.68,-3.4,15.14
7590,7.5,-46.44,32.13,-5.74,-3.61,14.7
7600,16.62,-103.12,20.56,-5.87,-3.89,14.04
7610,16.62,-103.12,20.56,-5.87,-3.89,14.04
7620,24.81,-151.12,7.37,-6.08,-4.14,11.56
7630,21.37,-225.12,-13.5,-5.65,-4.42,8.96
7640,7.44,-257.94,-27,-4.96,-4.54,6.9
7650,-7.75,-289.87,-47.19,-4.88,-4.26,6.24
7660,-7.75,-289.87,-47.19,-4.88,-4.26,6.24
7670,-18.25,-319.19,-69.5,-4.96,-3.75,5.91
7680,-18.37,-358.81,-87.19,-4.7,-1.82,5.93
7690,-2.75,-404.87,-100.62,-4.13,-1.43,3.75
7700,28.81,-398.81,-113.44,-4.69,-0.99,2.81
7710,50.44,-371,-121.62,-4.69,-0.99,2.81
7720,56.94,-364.5,-125.12,-4.92,0.03,1.01
7730,49.44,-371,-120.19,-3.99,0.08,-2
7740,24.75,-390.75,-108.44,-3.62,-0.14,-3.82
7750,-13.06,-407.44,-105.37,-2.67,-0.48,-7.24
7760,-50.69,-416.5,-108.81,-2.67,-0.48,-7.24
7770,-77.06,-418.12,-124.5,-2.69,-0.43,-9.35
7780,-84.44,-398,-152.31,-4.48,3.09,-14.68
7790,-68.12,-351.19,-176,-4.88,4.53,-16.04
7800,-32.25,-287.19,-179.5,-5.31,5.57,-17.29
7810,11.38,-213.31,-161.12,-5.31,5.57,-17.29
7820,40.19,-143.31,-130.19,-5.46,6,-18.53
7830,44.69,-79.5,-98.25,-6.48,6.34,-19.27
7840,29.5,-29.37,-68.06,-6.64,6.31,-18.93
7850,3.87,2.5,-38.56,-5.89,5.79,-18.45
7860,-27.31,24.75,-10.06,-5.89,5.79,-18.45
7870,-52.81,51.56,17.25,-5.35,5.55,-17.79
7880,-60.31,91.31,43.75,-4.52,4.45,-15.01
7890,-50.13,140.56,66.06,-4.22,2.93,-11.56
7900,-35.31,188.94,81,-4.36,2.4,-9.89
7910,-27.44,224.19,90.19,-4.36,2.4,-9.89
7920,-27.37,247.62,100.12,-4.4,1.94,-8.39
7930,-32.63,268.69,110.25,-4.51,0.79,-4.19
7940,-40.25,289.69,120.87,-4.74,0.27,-2.62
7950,-47.75,307.06,131.06,-4.56,-0.52,0.2
7960,-52.69,318.12,138.81,-4.56,-0.52,0.2
7970,-52.38,325.44,146.12,-4.81,-0.96,1.4
7980,-46.19,332.37,152.12,-5.17,-1.77,3.71
7990,-35.06,338.56,155.87,-4.79,-2.52,5.59
8000,-21.5,342.19,159.25,-4.73,-2.82,6.62
8010,-5.06,347.25,157.37,-4.73,-2.82,6.62
8020,15.88,354.56,151.25,-4.65,-2.86,7.61
8030,39.31,362.31,146.5,-5.04,-3.17,10.23
8040,60.19,370.12,135.12,-5.43,-3.18,10.68
8050,73.12,376.75,126.81,-5.82,-3.29,10.37
8060,70.12,401.19,120.5,-5.82,-3.29,10.37
8070,48.44,376.56,117.94,-5.76,-3.54,13.28
8080,19.87,286.37,107.44,-6.75,-3.25,14.68
8090,-7.37,235.75,105.94,-6.18,-4.49,16.25
8100,-31.06,182.5,105.56,-5.94,-5.02,16.71
8110,-47.38,119.56,94.94,-5.94,-5.02,16.71
8120,-52,52.19,77.31,-5.79,-5.51,17.17
8130,-40.75,-17.19,54.31,-5.57,-6.49,16.66
8140,-11.5,-80.69,25.75,-5.64,-6.33,15.47
8150,24.81,-133.94,-5.37,-5.96,-5.75,14.09
8160,52,-177.56,-34.38,-5.96,-5.75,14.09
8170,60.69,-217.69,-55.69,-6.61,-4.42,11.68
8180,55,-261.56,-71.25,-6.9,-3.85,10.76
8190,44.56,-306.37,-80.62,-6.97,-3.52,9.72
8200,33.81,-349.81,-86.75,-6.99,-3.29,7.33
8210,21.37,-399.75,-92.06,-6.32,-3.46,6.08
8220,3.87,-468.56,-103,-5.73,-3.49,5.27
8230,-13.81,-584.37,-123.94,-5.47,-3.12,5.26
8240,-16.31,-578.87,-143.37,-7.48,-1.63,-3.16
8250,-42.81,-535.31,-145.62,-6.13,-1.58,-5.47
8260,-80.94,-507.94,-152.94,-4.35,-1.34,-7.44
8270,-111.06,-479.19,-165.44,-4.37,-0.12,-11.04
8280,-111.06,-426.87,-178.81,-4.01,0.63,-12.35
8290,-72.81,-365.19,-191.56,-3.88,1.43,-13.99
8300,-14.13,-304.87,-205.81,-3.73,1.97,-16.41
8310,36.44,-234.37,-229.44,-4.51,4.53,-20.55
8320,67.87,-150.12,-243.25,-5.37,6.82,-20.62
8330,84.44,-76.25,-228.25,-6.21,8.69,-20.16
8340,79.81,-29.31,-189.25,-7.26,10.58,-20
8350,41.63,-8.69,-132.06,-7.25,10.76,-20.55
8360,-25.37,-0.69,-69.81,-6.87,10.43,-21.05
8370,-91.87,18.31,-13.56,-6.34,9.88,-20.89
8380,-124.56,58.31,35.5,-5.3,8.41,-17.96
8390,-114.37,114.69,73.94,-5.15,7.18,-15.97
8400,-75.19,182.06,98.37,-5.16,6.08,-13.57
8410,-35.88,240.62,117.06,-5.08,3.47,-10.11
8420,-23.87,276.69,130.37,-5.1,2.22,-8.57
8430,-37.69,296.25,137.37,-5.24,1.45,-6.67
8440,-55.31,307.12,144,-5.11,0.39,-2.91
8450,-63.69,316.31,151.5,-5.27,-0.22,-1.35
8460,-66.12,320.62,158.37,-5.18,-0.91,-0.12
8470,-67.75,320.5,161.25,-5.28,-1.45,0.8
8480,-66.44,325.69,159.37,-5.14,-1.93,3.05
8490,-56.19,337.56,156.5,-5.42,-1.94,4.49
8500,-36.13,350.44,157.75,-5.73,-1.96,5.71
8510,-12.5,363.94,160.69,-5.79,-2.36,8.05
8520,8.88,374.31,161.87,-6.06,-2.49,9.05
8530,23.19,379.94,164.31,-6.63,-2.65,9.72
8540,25.62,387,168.25,-7.04,-2.84,10.17
8550,17.5,416.56,174,-7.63,-4.18,10.72
8560,-1.31,415.5,179.56,-7.08,-4.84,13.54
8570,-13.75,329.94,169.37,-7.21,-4.65,14.26
8580,-14.69,285.25,161.5,-7.24,-5.57,16.57
8590,-11.88,233.25,150.37,-6.93,-6.03,17.31
8600,-10.44,164.75,131.06,-6.71,-6.42,17.59
8610,-13.06,90.44,107.62,-6.47,-7.38,17.76
8620,-17.44,16.87,77.75,-6.37,-7.71,17.75
8630,-19.25,-57.38,39.94,-6.31,-7.83,17.53
8640,-13.88,-128.37,0.5,-6.46,-7.68,16.7
8650,-2.19,-187.44,-33.25,-7.41,-6.55,13.79
8660,8.5,-236.56,-58.81,-7.38,-6.01,12.53
8670,15.5,-278.94,-78.44,-7.46,-5.54,11.56
8680,24.56,-317.75,-95.69,-7.52,-4.51,9.44
8690,36.94,-358.5,-109.62,-7.26,-4.07,8.36
8700,48.31,-407.5,-121.56,-7,-3.7,7.05
8710,53.19,-470.37,-134.31,-6.96,-3.34,5.7
8720,44.88,-579.06,-147.44,-7.45,-1.8,1.4
8730,33.25,-593.31,-157.62,-7.17,-1.35,-3.19
8740,-12.44,-557.12,-156.44,-6.39,-1.25,-6.41
8750,-72.06,-521.69,-167.56,-4.96,0.55,-10.01
8760,-111.19,-465.69,-173.87,-4.43,1.38,-10.6
8770,-106.19,-397.56,-172,-3.86,1.94,-11.02
8780,-60.31,-341.06,-172.31,-3.37,2.4,-12.24
8790,-2.06,-297.44,-182.31,-3.54,3.48,-16.93
8800,45.69,-246.94,-201.87,-3.86,4.66,-18.85
8810,75,-187.37,-215.81,-4.46,6.4,-19.86
8820,87.94,-130.94,-207.87,-5.96,9.31,-21.09
8830,81.25,-80.69,-176.44,-6.2,10.36,-21.54
8840,50.88,-38.06,-127.25,-6.15,10.95,-21.83
8850,6.12,4,-68.62,-5.7,10.85,-20.28
8860,-32.56,48.69,-7.75,-5.3,10.1,-18.56
8870,-48.88,96.06,48.19,-4.7,8.77,-16.49
8880,-45.44,147.06,92.62,-4.23,6.94,-14.5
8890,-41.5,192.19,121.62,-3.14,3.61,-10.19
8900,-41.13,229.19,137.12,-3.25,2.36,-7.86
8910,-39.13,257.06,145.31,-3.45,1.35,-5.62
8920,-38.69,270.87,150.56,-2.79,-0.57,-2.11
8930,-43.44,267.19,148.94,-2.76,-1.24,-0.9
8940,-50.81,251.62,142.12,-2.84,-1.73,-0.02
8950,-57.06,234.19,134.06,-2.84,-2.12,0.57
8960,-61.38,220.94,125.62,-2.56,-2.62,1.36
8970,-63.75,213.44,118,-2.68,-2.77,1.91
8980,-60.81,208.94,110.81,-2.92,-2.8,2.5
8990,-50.81,208.31,105,-2.81,-2.78,3.64
9000,-36.69,210.87,99.19,-3.11,-2.78,4.05
9010,-23.19,217.75,94.06,-3.05,-2.74,4.49
9020,-10.31,227.56,91,-3.19,-2.55,5.36
9030,4.75,238.69,95.94,-3.56,-2.82,6.78
9040,16.44,249.87,101.75,-3.38,-2.97,7.54
9050,21.94,255.94,106.31,-3.73,-3.2,8.44
9060,22.75,252.81,106.31,-3.39,-3.73,10.09
9070,18.87,247.19,102.75,-3.88,-3.76,10.48
9080,11,253.12,100.44,-3.84,-4.09,10.36
9090,-3.5,262.87,96.56,-4.58,-4.56,10.93
9100,-18.75,180.12,85.81,-3.21,-4.59,13.69
9110,-22.81,116.69,68.5,-3.52,-4.52,14.09
9120,-22,59.25,50.38,-2.89,-4.58,14.51
9130,-16,-7.12,27.19,-2.57,-4.5,14.25
9140,-2.94,-74.81,3.87,-2.22,-4.31,12.82
9150,10.06,-135.75,-19.25,-2.1,-3.8,10.59
9160,16,-182.75,-40.38,-2.34,-2.11,6.44
9170,17.69,-218.44,-52.75,-2.66,-1.29,5.82
9180,20.87,-276.94,-55.63,-2.15,-0.6,5.92
9190,35.31,-314.19,-54.88,-2.11,-0.06,2.98
9200,40,-273.25,-46.75,-1.39,-0.56,-2.37
9210,11.44,-272.12,-44.06,-0.68,-0.47,-4.3
9220,-30.87,-266.56,-49.69,-0.62,-0.18,-5.76
9230,-65.06,-243.31,-55,-0.3,0.82,-6.53
9240,-71.87,-212.06,-57.19,0.01,1.22,-6.74
9250,-51.31,-180.81,-56.31,0.28,1.52,-7.3
9260,-20.5,-148.75,-54.06,0.64,1.85,-8.08
9270,3.81,-114.56,-49.25,0.6,2.76,-9.41
9280,13.63,-78.81,-38,0.78,3.04,-9.28
9290,11.63,-46.5,-21.75,0.95,3.19,-8.78
9300,3,-21.44,-4.69,1.35,2.25,-7.17
9310,-7.25,-4.19,3.44,1.62,1.85,-6.36
9320,-12.75,4,7.25,1.73,1.35,-5.85
9330,-13.56,7.81,6.06,1.9,1.03,-5.42
9340,-11.38,12,2.62,1.86,1.14,-5.44
9350,-10,18.75,-0.19,1.68,1.38,-5.48
9360,-11.06,28.94,-0.31,1.4,1.71,-5.43
9370,-15.31,41.63,4.31,1.14,1.65,-4.89
9380,-21.25,54.63,10.75,0.98,1.49,-4.3
9390,-23.31,67,16.19,0.79,1.3,-3.56
9400,-18.81,77.56,21.31,0.35,0.73,-2.3
9410,-10.81,85.06,25,0.47,0.24,-1.97
9420,-3.94,91.37,25.06,0.33,0.28,-1.37
9430,1.62,95,27.06,0.32,-0.39,-1.25
9440,-0.88,96.75,25.69,-0.01,-0.79,-0.39
9450,-8.94,95.5,23.12,-0.42,-0.88,0.12
9460,-14.63,91.81,18.94,-0.44,-0.81,0.77
9470,-14.5,86.31,15.81,-0.67,-0.55,1.18
9480,-10.69,85.37,14.44,-0.98,-0.58,1.6
9490,-6.06,82.37,16.37,-1.02,-0.42,1.71
9500,-4,78.87,21.75,-0.95,-0.66,1.78
9510,-9,79.37,25,-1.08,-0.91,2.39
9520,-14.75,82.5,27.56,-1.16,-1.03,3
9530,-14.88,84.44,29.31,-1.28,-1.16,3.69
9540,-8.75,85.19,30.5,-1.25,-1.45,4.97
9550,0.94,84.81,29.62,-1.38,-1.54,5.52
9560,11.56,82.25,28.56,-1.55,-1.56,5.99
9570,18.75,77.75,29.37,-1.61,-1.81,7.1
9580,22.12,70.37,31.19,-1.63,-2,7.59
9590,21.19,59.13,35.13,-1.43,-2.36,8.07
9600,16.56,43.75,34.63,-1.5,-2.63,8.5
9610,10.94,22.81,28.5,-1,-3.01,9.25
9620,6.5,-6.06,17.06,-0.98,-2.85,9.49
9630,7.69,-39.63,1.44,-1.01,-2.43,9.45
9640,15.63,-69.06,-10.81,-1.4,-1.16,8.34
9650,26.44,-90.19,-17.06,-1.54,-0.61,7.45
9660,31.75,-107.19,-19.25,-1.83,0.06,6.42
9670,31.75,-107.19,-19.25,-2.31,0.83,5.5
9680,22.87,-116.5,-2.56,-3.23,0.91,3.86
9690,6.12,-114.94,19.69,-3.16,-0.2,3.23
9700,-26.62,-119.5,38.75,-2.61,-1.83,3.06
9710,-68.06,-137.37,43.63,-1.72,-4.47,3.68
9720,-93.87,-166,32.81,-1.13,-5.2,3.91
9730,-87.12,-195.12,10,-0.56,-5.58,3.49
9740,-54.13,-219.12,-18.94,-0.19,-5.65,2.52
9750,-9.75,-233.12,-49.63,0.15,-4.69,-0.56
9760,28.19,-239.25,-77.62,0.33,-3.8,-2.37
9770,28.19,-239.25,-77.62,0.71,-2.72,-4.29
9780,45.06,-280.06,-133.31,-1.11,0.45,-9.13
9790,41,-296.62,-157.12,-1.87,2.03,-12.04
9800,32.13,-298.19,-166.37,-2.44,3.33,-14.99
9810,14.25,-283.62,-166.81,-3.94,5.72,-20.63
9820,-11.81,-246.69,-157.87,-4.01,6.75,-22.49
9830,-32.75,-181.75,-139.56,-4.14,7.77,-23.37
9840,-35.69,-99.75,-111.5,-4.28,8.61,-23.22
9850,-20.06,-13.38,-74.12,-4.32,9.37,-21.81
9860,1.37,74.62,-28.56,-4.23,8.95,-19.82
9870,1.37,74.62,-28.56,-4.07,7.57,-16.75
9880,14.06,157.87,22.06,-3.45,4.58,-9.84
9890,-13.06,259.12,97.81,-3.55,3.07,-6.57
9900,-29.56,272.87,124.44,-3.71,1.48,-4.01
9910,-36.38,273.19,141.44,-3.24,-0.18,-2.29
9920,-36.38,273.19,141.44,-2.1,-2.66,0.11
9930,-34.88,267.87,146.12,-1.99,-3.5,0.95
9940,-26.06,258.37,128.06,-1.72,-4,2.05
9950,-16.87,258.75,107.25,-1.95,-3.99,4.11
9960,-3.69,260.37,85.87,-2.44,-3.71,4.94
9970,-3.69,260.37,85.87,-2.57,-3.38,5.95
9980,10.38,264.87,68.37,-2.62,-3.13,6.8
9990,33.81,267.62,46.31,-2.75,-2.68,8.15
10000,35.38,268.81,40.13,-3.84,-2.61,8.98
