timestamp,gyrox,gyroy,gyroz,accx,accy,accz
10,29.06,152.31,172.31,0,0,0
20,31.87,149.44,146.19,0,0,0
30,31.62,144.5,118.75,0,0,0
40,32.69,145.69,93.87,4.61,-13.23,-19.26
50,44.31,152.62,72,5.73,-13.7,-18.42
60,62.63,161.69,45.25,5.95,-13.78,-18.23
70,68.19,168.56,22.5,6.07,-13.83,-18.01
80,57.13,169.69,1.37,6.48,-13.7,-17.5
90,43,170.12,-17.5,6.52,-12.61,-15.54
100,39.44,166.75,-30.69,6.85,-12.44,-14.29
110,46.75,156,-44.88,7.11,-12.62,-13.56
120,57.06,138.31,-58.94,7.85,-12.49,-13.04
130,57.38,116.75,-73.37,8.3,-12.57,-13.42
140,42.19,99.25,-90.06,8.53,-12.54,-13.95
150,19.06,93.06,-107.69,8.54,-12.24,-14.37
160,-5.44,95.12,-119.69,8.38,-11.49,-13.88
170,-24.37,100.31,-126.75,8.12,-10.29,-13.46
180,-28.12,111.31,-130.81,8.46,-9.82,-13.12
190,-47.94,112.19,-139.69,8.35,-8.87,-12.54
200,-78.87,106.81,-146.06,8.47,-8.08,-11.83
210,-94.25,105.69,-152,8.51,-6.93,-10.61
220,-95.56,102.37,-155.25,8.24,-5.83,-10.27
230,-109.12,96,-151.06,7.92,-4.45,-10.94
240,-145.31,91.94,-142.56,8.11,-3.75,-10.76
250,-179.56,98.75,-132.12,8.17,-3.32,-9.93
260,-194.81,111.81,-124.75,8.71,-3.7,-7.44
270,-194,108.31,-126.62,9.11,-3.65,-6.22
280,-172.37,98.37,-140.81,9.62,-3.45,-4.95
290,-128.62,84,-168.87,9.65,-2.41,-3.14
300,-72.56,56,-208.06,9.16,-0.18,-2.85
310,-24.5,16.06,-237.75,7.34,1.14,-3.41
320,10.81,-23.12,-254.44,7.33,3.53,-4.29
330,30.06,-55.13,-245.94,6.07,6.72,-6.06
340,35.19,-81.25,-229.12,5.52,8.03,-7.06
350,25.69,-102.87,-207.31,5.04,8.86,-7.86
360,10.25,-115.56,-185.44,5.29,9.81,-9.45
370,-6.81,-116,-165.19,5.06,10.17,-9.78
380,-6.81,-116,-165.19,4.74,10.59,-9.83
390,-47.69,-122.31,-133.62,4.45,11,-9.57
400,-59.81,-139.12,-126.62,4,11.93,-9.41
410,-55.25,-157.5,-126.25,3.36,12.8,-9.98
420,-38.13,-170.06,-122,2.73,13.67,-10.65
430,-12.44,-172.87,-111.37,2.31,15.02,-12.19
440,12.56,-170.62,-93.62,2.11,15.39,-13.28
450,31.06,-166.06,-71.87,2.03,15.49,-14.31
460,42.81,-158.94,-54.56,1.89,15.48,-15.32
470,52.81,-147.75,-41.13,1.58,15.89,-16.58
480,66.06,-136.19,-29.5,1.19,15.89,-17.12
490,80.25,-129.06,-20.12,0.49,15.93,-17.61
500,94.06,-119.56,-11.94,0.11,16.27,-19.48
510,103.75,-99.56,-3.19,-0.62,16.6,-20.45
520,100.31,-74.25,15,-0.81,16.98,-20.75
530,100.31,-74.25,15,-1.34,17.22,-20.23
540,82.75,-53.88,44.25,-1.16,16.49,-19.72
550,11.81,-40.44,127.37,-0.71,15.2,-18.97
560,-22.5,-46.69,164.25,-0.24,13.49,-17.95
570,-40.31,-63.63,187.75,0.93,9.43,-17.12
580,-40.31,-63.63,187.75,1.36,7.93,-17.49
590,-40.75,-83.12,191.62,1.31,7,-17.78
600,18.44,-90.5,160.44,0.8,6.67,-18.3
610,65.31,-82.31,145.87,0.42,6.74,-19.28
620,91.31,-71.75,141.56,0.21,6.76,-20.48
630,91.31,-71.75,141.56,-0.04,6.76,-21.04
640,83,-61.81,151.19,0.13,4.94,-20.09
650,24,-55.06,193.12,0.4,3.43,-18.97
660,12.31,-59.63,205.56,0.82,1.78,-18.16
670,16.81,-62.38,206.69,1.84,-1.23,-17.26
680,16.81,-62.38,206.69,1.84,-1.23,-17.26
690,26.37,-66.12,198.87,2.33,-2.52,-17.03
700,16.5,-83.12,156,2.17,-3.75,-17.73
710,4.31,-90.44,138.75,2.23,-4.01,-16.95
720,4.75,-96.12,121.81,2.05,-4.1,-16.64
730,4.75,-96.12,121.81,2.05,-4.1,-16.64
740,12.94,-99.87,107.94,1.61,-4.69,-15.76
750,29.37,-116.62,93.37,1.43,-5.21,-15.51
760,31.31,-131.94,89.12,1.14,-5.83,-15.47
770,19.87,-156.94,82.19,0,-7,-17.28
780,19.87,-156.94,82.19,0,-7,-17.28
790,-4.87,-181.75,73.81,-0.32,-7.39,-17.98
800,-28.56,-201.87,44.19,-0.58,-7.55,-19.24
810,-25,-195.31,18.12,-0.55,-7.54,-20.37
820,-17.56,-182.75,-16.5,-0.93,-6.87,-20.65
830,-17.56,-182.75,-16.5,-0.93,-6.87,-20.65
840,-6.19,-162.37,-49.69,-1.53,-6,-20.51
850,7,-131.5,-80.06,-2.86,-3.02,-18.8
860,-14.63,-137.69,-88.37,-3.72,-2.56,-18.58
870,-43.81,-151.5,-93.5,-4.57,-1.51,-18.04
880,-43.81,-151.5,-93.5,-4.57,-1.51,-18.04
890,-52,-164.56,-92.69,-5.42,-0.82,-18.28
900,-49.88,-173.06,-94.5,-6.94,-0.15,-18.45
910,-38.31,-173.75,-95.19,-7.78,-1.72,-20.75
920,-19.5,-177.37,-89.12,-8.3,-2.44,-22.25
930,-13.38,-187.25,-91.69,-8.3,-2.44,-22.25
940,-11.38,-186.69,-111,-8.87,-2.42,-23.51
950,-0.5,-168.37,-138.75,-12.62,0.47,-26.48
960,9.88,-135.25,-164.94,-13.69,1.46,-26.81
970,12.44,-99.56,-175.31,-14.22,1.85,-27.28
980,6.75,-67.69,-170.62,-14.22,1.85,-27.28
990,-2.56,-36.63,-161.12,-14.84,2.58,-27.42
1000,-11,-2.5,-143.81,-13.87,1.44,-26.81
1010,-27,24.5,-135.37,-14.34,1.73,-25.77
1020,-34.88,41.75,-142.31,-14.73,2.91,-25.69
1030,-17.25,58.25,-148.25,-14.73,2.91,-25.69
1040,1,79.5,-149.75,-14.89,3.24,-26.68
1050,-3.06,108.31,-143.12,-14.15,3.64,-25.71
1060,-25.25,136.19,-124.87,-13.5,3.27,-24.53
1070,-49.88,160.37,-107.37,-12.8,2.83,-23.4
1080,-61.19,181.87,-95.37,-12.8,2.83,-23.4
1090,-62.06,196.75,-92.06,-11.89,2.77,-21.12
1100,-56.81,203.31,-92.81,-10.54,3.34,-20.08
1110,-45.94,205.37,-92.94,-9.73,3.62,-20.03
1120,-37.25,208.94,-93.06,-8.45,4.1,-19.23
1130,-33,219.31,-92,-8.45,4.1,-19.23
1140,-35.5,230.56,-88.94,-7.58,4.18,-18.61
1150,-44.69,236.44,-84.69,-5.62,4.75,-15.54
1160,-51.81,238.06,-75.5,-4.58,4.77,-14.63
1170,-52.5,240.5,-69.06,-3.72,4.81,-13.67
1180,-51.69,243.56,-65.31,-3.72,4.81,-13.67
1190,-51.81,244.44,-61.69,-3.03,5.06,-12.54
1200,-51.75,240.87,-55,-1.77,6.07,-8.76
1210,-49.5,224.75,-43,-1.25,6.3,-7.97
1220,-46.81,195.5,-27.06,-0.48,6.22,-6.94
1230,-42.19,151.5,-7.31,-0.48,6.22,-6.94
1240,-25.81,89.31,9.38,0.04,5.95,-7.47
1250,8.38,30.44,14.56,0.91,6.19,-13.94
1260,50.75,-4.06,-0.25,-0.13,8,-15.03
1270,99.25,-2.87,-30.94,-1.21,9.51,-16.01
1280,144,12.19,-46,-1.21,9.51,-16.01
1290,152.44,15.56,-32.19,-2.11,10.35,-17.3
1300,109.62,0.25,1.94,-3.73,10.98,-21.14
1310,45.94,-22.69,48.38,-3.43,10.12,-21.93
1320,10.13,-35.63,95.25,-2.62,8.26,-23.53
1330,25,-22.94,126.25,-2.62,8.26,-23.53
1340,68.87,13.25,146.69,-1.57,7.09,-24.33
1350,102.75,57.44,162.37,0.4,4.62,-24.91
1360,97.19,92.06,170.81,0.79,4.33,-21.98
1370,70.31,107.5,177.31,0.61,4.2,-21.05
1380,58.88,106.12,189.19,0.61,4.2,-21.05
1390,64.12,95.12,213.37,0.66,3.28,-21.41
1400,65.12,88.37,241.87,1.94,0.25,-23.04
1410,60.75,98.25,263.69,2.58,-1.32,-23.06
1420,42.19,120.06,280.37,3.25,-3.03,-22.26
1430,-0.37,126.94,294.31,3.69,-4.76,-21.08
1440,-51.5,112.37,304.19,3.26,-7.65,-18.71
1450,-87.37,79.56,310.62,3.17,-9.16,-18.57
1460,-94.56,38.25,308.56,3.15,-10.39,-18.71
1470,-73.56,2.81,300.37,3.11,-13.04,-22.26
1480,-44.19,-12.38,287.69,3.44,-14.32,-23.99
1490,-6.69,3.81,260,4.29,-15.49,-25.32
1500,32.25,49.44,216.5,4.87,-18.12,-27.06
1510,15.94,106.5,168.19,4.97,-18.82,-26.31
1520,-17.81,152.87,120.5,4.95,-19.16,-24.7
1530,-55,171.94,76.25,4.55,-18.94,-22.7
1540,-73.5,171.56,42.5,4.87,-18.6,-19.87
1550,-67.31,165.81,12.94,5.71,-18.69,-19.42
1560,-51.25,162.12,-26.06,6.29,-18.04,-18.92
1570,-31.87,159,-71.62,6.03,-14.57,-17.85
1580,-7.87,160.62,-107.25,6.17,-13.13,-17.58
1590,8.75,168.69,-128.75,6.48,-12.24,-17.52
1600,6,180.56,-141.31,7.06,-11.46,-17.08
1610,-15.19,193.06,-150.19,7.76,-10.79,-15.67
1620,-46.13,204.19,-160.25,8.19,-10.41,-14.15
1630,-70.06,212.62,-174.5,8.57,-9.88,-12.25
1640,-78.19,212.37,-195.94,8.41,-8.1,-9.36
1650,-75.81,198.81,-220.81,8.05,-6.54,-8.31
1660,-68.44,174.94,-240.44,7.74,-4.75,-7.34
1670,-54.69,144.31,-246.25,7.47,-3.19,-6.98
1680,-41.44,117.56,-241.75,7.47,-1.47,-7.32
1690,-32.75,99.87,-234.12,7.62,-0.79,-7.38
1700,-28.5,88.25,-227.94,7.82,-0.26,-7.21
1710,-25.19,82.5,-225.75,7.98,0.61,-6.24
1720,-19.81,76.44,-225.75,7.53,1.12,-5.91
1730,-13.44,69.31,-231.62,8.01,1.82,-5.7
1740,-11.81,58.44,-242.62,6.86,3.54,-4.99
1750,-15.31,36.69,-248.87,6.33,4.67,-4.97
1760,-27.12,15.63,-243.94,5.9,5.81,-4.72
1770,-42.06,-6.19,-227.94,5.03,6.63,-4.54
1780,-53.56,-25.56,-211.12,5.3,6.57,-4.48
1790,-64.31,-46.81,-212,5.41,7.98,-3.88
1800,-58.19,-71.37,-213.44,5,9.25,-3.75
1810,-37.75,-96.44,-208.94,4.37,10.56,-3.85
1820,-6.56,-123.44,-207.87,3.4,11.09,-4.57
1830,24.87,-145.5,-212.31,2.73,11.72,-5.68
1840,45.88,-159.44,-216.44,1.93,13.07,-6.78
1850,55.5,-172.75,-209.75,0.56,14.99,-8.53
1860,58,-188.31,-194.5,-0.23,15.76,-9.24
1870,60.88,-206,-172,-0.69,16.2,-10.03
1880,74.69,-219.75,-149.94,-1.36,16.8,-12.29
1890,96.81,-223,-131.69,-1.87,16.98,-13.94
1900,117.69,-221.5,-117.5,-2.58,17.24,-15.47
1910,137.81,-209.5,-106.06,-3.41,17.75,-16.89
1920,155.56,-187.87,-89.69,-4.26,18.96,-19.78
1930,158.5,-158,-60.19,-4.54,19.05,-21.11
1940,141.25,-120.12,-20.31,-4.44,18.72,-21.86
1950,105.94,-82.25,20.19,-4.17,17.53,-21.23
1960,61.56,-55.31,54.88,-4.04,16.75,-19.59
1970,33.56,-44.94,78.81,-4.26,16.32,-17.93
1980,40.06,-46.38,95,-4.5,15.8,-16
1990,71.81,-53.44,112.87,-4.48,15,-16.68
2000,93.06,-63.63,135.19,-4.07,13.92,-18.03
2010,85.94,-73.62,157.62,-3.72,12.92,-19.35
2020,62.5,-73.62,179.25,-2.88,10.75,-19.6
2030,45.13,-62.75,197.44,-2.26,9.31,-18.96
2040,34.06,-51.75,210.25,-1.81,7.72,-17.94
2050,24.94,-50.44,217,-1.25,5.1,-16
2060,21.44,-60,220.25,-1.01,3.94,-15.71
2070,19.31,-75.12,219.19,-0.72,2.99,-15.48
2080,16.12,-95.75,216.94,-0.36,2.24,-15.38
2090,17.87,-117.94,215.81,0.43,0.72,-16.13
2100,22.44,-136.56,213,0.95,-0.19,-16.91
2110,23.69,-146.5,206.19,0.98,-1.29,-17.51
2120,21.06,-150.62,193.31,0.78,-3.37,-18.12
2130,13,-156.25,176.87,0.58,-4.27,-18.23
2140,3.87,-166.94,156.25,0.31,-4.92,-18.35
2150,3.81,-176.31,129.75,-0.06,-5.18,-18.55
2160,12.06,-180.19,101.19,-0.37,-4.91,-19.21
2170,22.19,-179.19,72.5,-0.72,-4.41,-19.58
2180,25.69,-174.06,49.94,-1.34,-3.88,-20.05
2190,15.38,-174.62,38.5,-1.7,-3.74,-20.46
2200,6.25,-180.69,27.19,-2.37,-3.91,-21.05
2210,4.87,-181.37,11.88,-2.77,-4.05,-21.55
2220,9.69,-171.94,-10.63,-4.17,-3.19,-22.22
2230,14.81,-156,-32.06,-5.09,-2.44,-22.22
2240,15.06,-142.37,-43.44,-5.84,-1.89,-22.18
2250,11.5,-128.5,-45.56,-5.73,-1.59,-21.86
2260,5.94,-117.5,-42.38,-5.39,-1.75,-20.33
2270,7,-114.06,-40.94,-5.42,-2.18,-20.25
2280,13.19,-108.44,-49.94,-4.86,-2.32,-19.97
2290,14.38,-104.81,-63.19,-5.64,-2.5,-20.2
2300,7.69,-100.5,-80.25,-6.05,-2.24,-20.23
2310,-2.06,-97.94,-99.56,-6.81,-1.91,-20.44
2320,-12.56,-97.75,-117.87,-7.58,-1.22,-20.52
2330,-12.69,-95.31,-129.94,-9.16,0.5,-21.09
2340,-2.25,-86.81,-133.62,-9.83,1.06,-21.75
2350,2.06,-72.25,-131.12,-10.2,1.46,-22.25
2360,-12,-55.69,-120.06,-10.14,0.72,-22.51
2370,-44,-46.13,-114.12,-10.49,0.45,-21.89
2380,-68.75,-44.13,-119,-10.9,0.41,-21.56
2390,-64.75,-44.88,-134.62,-11.41,0.74,-21.92
2400,-32.44,-41.88,-159.19,-13.8,3.93,-23.99
2410,20.75,-20.5,-172.56,-14.63,5.02,-26.05
2420,53.5,15.44,-166,-14.39,5.07,-28.06
2430,40.94,61.56,-155.69,-14.81,5.7,-27.76
2440,7.44,103.75,-139.44,-14.79,5.47,-26.42
2450,-24,129.06,-113.75,-14.16,4.45,-25.67
2460,-50.19,140.5,-99.44,-13.44,3.69,-24.01
2470,-51.31,157.94,-95.81,-12.68,3.7,-23.16
2480,-30.81,178.56,-96.62,-12.56,3.91,-22.68
2490,-8.25,195.94,-100.06,-12.26,4.54,-22.11
2500,10,212,-93.69,-11.05,4.54,-21.37
2510,14,227.25,-84.75,-10.19,4.09,-20.74
2520,-0.37,241.69,-82.81,-9.32,4,-19.46
2530,-20.31,249.75,-80.75,-7.83,4.11,-15.95
2540,-37.44,247.5,-74.44,-6.83,4.07,-14.39
2550,-46.88,233.62,-67.62,-6.02,3.99,-13.31
2560,-50,214.06,-62.31,-5.29,4.14,-12.32
2570,-47.5,188.62,-55.19,-3.98,4.27,-10.72
2580,-40.25,159.19,-50.19,-3.1,4.25,-10.43
2590,-31.5,133.69,-49.63,-2.38,4.32,-10.1
2600,-23.81,109.62,-51.31,-1.87,5.2,-9.47
2610,-18.56,82.12,-49.38,-1.78,5.62,-9.56
2620,-16.44,52.44,-41.44,-1.78,5.86,-9.92
2630,-18.56,27.69,-27.37,-1.62,5.74,-10.4
2640,-23.12,8.31,-14.94,-1.7,5.28,-10.86
2650,-23.31,-8.5,-6.37,-1.85,5.06,-11.26
2660,-15.69,-26.81,-1,-2.08,4.71,-12.1
2670,-3.06,-44.25,-2.12,-3.59,4.76,-15.03
2680,10.31,-58.69,0.62,-3.97,4.28,-17.18
2690,22.06,-68.75,-2.37,-4.37,4.45,-18.95
2700,50.81,-60.75,-16.37,-6.1,6.74,-21.72
2710,93.44,-36.44,-20.69,-6.73,7.46,-23.13
2720,123.31,-12.13,-10.5,-7.19,7.93,-24.24
2730,131.06,6.19,8.56,-7.74,8.3,-25.21
2740,124,23.12,39.38,-7.98,7.72,-27.34
2750,105.44,40.06,78.69,-7.37,6.7,-28.24
2760,84.87,64.25,107.69,-6.91,6.12,-28.76
2770,68.87,103.75,128.12,-6.14,5.46,-27.66
2780,59.75,147.62,148.94,-5.47,4.82,-26.62
2790,50.19,183.37,168.56,-4.69,4.07,-25.33
2800,35.25,202.75,183.87,-3.77,3.47,-23.64
2810,29.37,204.5,192.19,-2.61,3.08,-20.92
2820,41,198,199.31,-1.55,2.6,-20.67
2830,49,190.19,208.75,-0.41,1.94,-20.59
2840,38.63,178.12,222,1.21,0.34,-20.66
2850,20.06,164.31,237.19,1.73,-0.7,-21.2
2860,-1.94,153.31,253.5,2.07,-2.07,-21.84
2870,-24.56,146.56,269.62,2.3,-3.41,-21.75
2880,-34.06,143.81,285.12,3.8,-6.49,-21.6
2890,-35.38,147.31,294.19,4.97,-8.24,-21.96
2900,-43.25,154.94,288.5,5.62,-9.36,-21.9
2910,-65.06,162.19,273.75,5.86,-11.11,-20.93
2920,-96.75,162.44,262.81,5.95,-11.69,-19.29
2930,-101.5,149.5,254.69,6.54,-12.33,-18
2940,-101.5,149.5,254.69,8.09,-14.91,-17.63
2950,33.88,155.81,210.25,9.64,-16.35,-17.45
2960,101,174.31,164.19,10.23,-17.4,-17.41
2970,126.19,182.06,106.37,10.45,-17.81,-16.99
2980,106.56,173.75,52.31,10.09,-16.94,-15.76
2990,68.12,157.19,8.56,10.11,-16.03,-14.49
3000,45.88,139.31,-24.87,10.1,-15.43,-13.75
3010,42.69,125.19,-49.81,10.53,-14.48,-13.64
3020,44.44,115,-71.87,10.87,-13.82,-13.47
3030,43.75,109.37,-94.44,11.22,-13.04,-13.27
3040,43.75,109.37,-94.44,11.5,-12.37,-13.07
3050,30.81,115.62,-127.62,11.59,-11.51,-12.17
3060,6.81,118.62,-142.44,11.43,-10.54,-11.37
3070,-22.69,117.75,-154.12,11.09,-9.29,-10.36
3080,-44.88,109.31,-157.5,10.42,-7.26,-8.92
3090,-44.88,109.31,-157.5,10.1,-6.39,-9
3100,-56.06,90.5,-153.62,10.03,-5.68,-9.46
3110,-77.37,44.5,-129.87,9.83,-5.26,-10.44
3120,-96.19,33.06,-112.75,9.96,-5.93,-12.63
3130,-114.25,39.5,-102.31,10.74,-6.24,-12.6
3140,-114.25,39.5,-102.31,10.74,-6.24,-12.6
3150,-129.44,59.5,-101.81,10.69,-6.83,-9.96
3160,-125.06,94.94,-142.69,10.41,-6.17,-8.82
3170,-100.81,110.44,-172.19,10.21,-5.15,-7.49
3180,-68.06,116.19,-199.81,9.09,-2.71,-5.4
3190,-68.06,116.19,-199.81,9.45,-1.03,-5.07
3200,-29.44,109.19,-220.87,8.27,-0.11,-5.13
3210,23.44,76.75,-247.62,8.19,1.63,-4.66
3220,36.69,59.94,-248.62,7.17,4.55,-4.59
3230,33.06,37.38,-229.12,7.15,5.28,-4.73
3240,33.06,37.38,-229.12,7.1,5.97,-4.89
3250,10.75,7.56,-207.31,7.37,6.55,-4.59
3260,-46.13,-49.56,-168.75,7.31,6.95,-4.65
3270,-50.75,-68.25,-157.5,7.15,7.12,-4.85
3280,-46.38,-85,-151.56,6.95,7.29,-5.14
3290,-46.38,-85,-151.56,6.39,8.09,-6.3
3300,-41.75,-102.37,-154.75,6.04,8.77,-7.01
3310,-48.75,-133.12,-170.12,5.44,9.62,-7.42
3320,-51.44,-145,-177.19,4.2,11.55,-7.91
3330,-47.63,-160.06,-176.5,3.46,12.38,-8.59
3340,-47.63,-160.06,-176.5,3.46,12.38,-8.59
3350,-43.81,-175.69,-167.62,3.11,13.05,-9.48
3360,-20.44,-162.5,-138.31,3.65,13.63,-12.41
3370,-14.25,-136.62,-131.31,3.58,14.18,-12.63
3380,-24.56,-116.56,-132.56,3.11,15.09,-12.1
3390,-24.56,-116.56,-132.56,3.11,15.09,-12.1
3400,-42.19,-112.19,-135.81,2.1,17.12,-10.68
3410,-44.69,-144.94,-133.81,0.85,18.8,-10.31
3420,-14.69,-167.81,-129.37,-0.66,19.57,-11.37
3430,34.75,-188.69,-120.94,-1.94,20.46,-13.32
3440,34.75,-188.69,-120.94,-1.94,20.46,-13.32
3450,95.31,-195.87,-106.25,-2.85,21.11,-15.25
3460,201.25,-140.31,-40.56,-3.8,20.8,-19.6
3470,201.25,-140.31,-40.56,-3.73,19.52,-20.21
3480,217.44,-95.25,6.75,-3.34,18.16,-19.8
3490,197.37,-52.63,53.13,-3.34,18.16,-19.8
3500,145.56,-24.44,93.31,-2.81,15.79,-16.03
3510,88.44,-19.06,131.12,-1.39,11.58,-13.32
3520,47.88,-35.81,165.19,-0.44,9.22,-13.19
3530,25.94,-64.12,185.87,0.1,5.83,-13.76
3540,16.56,-90.75,188.94,0.1,5.83,-13.76
3550,20.87,-112,176.06,0.07,5.16,-14.28
3560,39.63,-122.94,156.25,0.06,4.39,-16.26
3570,65.69,-122.94,140.5,0.15,4.17,-16.84
3580,84.31,-121.06,130.12,0.06,4.2,-17.15
3590,90.5,-118.81,119.37,0.06,4.2,-17.15
3600,90.62,-114.69,110.56,-0.56,4.4,-17.01
3610,85.44,-110.75,109.25,-1.53,3.34,-16.38
3620,73.37,-114.94,114.87,-1.39,2.49,-16.18
3630,62.44,-125,125.25,-1.12,0.41,-16.15
3640,60,-136.75,136.87,-1.12,0.41,-16.15
3650,66.75,-150.44,142,-1.16,-0.58,-16.26
3660,75.44,-169.94,141,-0.83,-2.28,-18.12
3670,79.69,-196.94,131.44,-1.32,-2.32,-18.99
3680,82.06,-220.44,113.81,-1.83,-2.32,-19.76
3690,81.5,-236.94,97.5,-1.83,-2.32,-19.76
3700,80.69,-243.44,90.12,-2.38,-2.6,-20.58
3710,77.69,-237.31,93.19,-3.68,-5.14,-22.04
3720,66.69,-225.25,103.12,-3.69,-6.53,-22.08
3730,45.81,-212.69,113.19,-3.73,-7.44,-22.17
3740,13.75,-213.87,109,-3.73,-7.44,-22.17
3750,-17.25,-220.75,92.75,-5.09,-6.63,-22.44
3760,-35,-233.31,75.37,-5.37,-5.88,-24.38
3770,-40.81,-228.94,45.44,-6.87,-4.95,-25.35
3780,-43.25,-217.19,5.81,-7.38,-4.04,-25.34
3790,-35.25,-195.87,-37,-7.38,-4.04,-25.34
3800,-10.31,-160.5,-75.56,-8.23,-3.3,-25.47
3810,17.87,-123.12,-105.5,-9.18,-1.39,-24.94
3820,33.06,-89.87,-124.56,-9.42,-0.71,-24.48
3830,31.75,-67.5,-136.69,-10.28,0.4,-24.02
3840,20.87,-58,-150,-10.28,0.4,-24.02
3850,11.06,-54.56,-152,-11.31,1.84,-24.74
3860,-0.81,-48.31,-144.19,-12.22,2.18,-25.63
3870,-13.19,-37.25,-135,-12.4,1.57,-26.26
3880,-29.94,-19.81,-122.87,-12.65,1.02,-25.98
3890,-50.88,3.75,-112.75,-12.65,1.02,-25.98
3900,-69.75,31.25,-110.44,-12.46,0.72,-24.93
3910,-77.5,55.25,-121.06,-14.02,2.12,-22.43
3920,-64.62,70.31,-136.44,-14.33,2.68,-23.27
3930,-44.5,75.12,-144.69,-14.27,3.04,-24.56
3940,-28.44,82.31,-141.75,-14.27,3.04,-24.56
3950,-23.62,108.37,-131.06,-13.61,2.82,-25.57
3960,-42.44,146.25,-120.06,-12.82,3.07,-22.21
3970,-61.25,185.44,-110,-11.61,2.43,-19.08
3980,-64,219.62,-98.69,-10.57,2.48,-17.32
3990,-62.44,242.75,-93.44,-10.57,2.48,-17.32
4000,-60.69,255.06,-93.69,-9.52,2.69,-15.83
4010,-56.69,256.06,-94.69,-8.88,2.96,-14.7
4020,-55.25,247.94,-96,-7.65,3.55,-12.51
4030,-58.25,233.5,-96.12,-6.63,3.92,-11.46
4040,-59.5,214.25,-95.12,-5.96,4.24,-10.66
4050,-56.63,189.69,-94.87,-5.45,5.16,-9.51
4060,-50.19,163.19,-93.56,-4.91,5.68,-8.98
4070,-38.44,137.44,-90.5,-4.53,6.23,-8.61
4080,-21.5,110.19,-86.87,-4.16,6.81,-8.58
4090,-5.75,83.12,-79.69,-4.21,7.65,-9.43
4100,-1.62,52.31,-65.5,-4.28,7.78,-10.28
4110,-9.25,16.94,-52.56,-4.74,8.13,-11.3
4120,-16.75,-19.56,-45,-5.84,9.39,-14.58
4130,-7.06,-45.69,-40.13,-6.35,10.24,-16.28
4140,28.37,-47.25,-43.94,-7.21,11.34,-17.91
4150,77.37,-30.12,-44.69,-8.72,12.78,-21.33
4160,114.31,-9.19,-33.94,-9.17,13.1,-22.63
4170,141.25,19.94,-15.5,-9.42,13.12,-23.94
4180,151.62,51.69,11.5,-9.07,12.96,-24.94
4190,140.44,77.06,42.38,-9.16,12.89,-25.53
4200,118.44,96.31,80,-8.5,11.75,-25.86
4210,87.75,105.94,125.31,-7.77,10.08,-26.22
4220,56.81,114.37,163.87,-6.51,6.42,-26.21
4230,29.94,122.31,193.06,-5.85,4.39,-26.45
4240,11.44,123.81,213.62,-5.14,2.86,-26.28
4250,14.5,130.69,219.69,-4.33,1.83,-26.23
4260,43.38,151.37,216.19,-3.35,0.26,-27.24
4270,67.87,184.25,210.37,-2.89,-0.8,-27.72
4280,61,227.87,216.25,-1.69,-2.17,-26.76
4290,19.5,272.37,228.25,0.58,-4.44,-21.21
4300,-34.13,296.06,237.19,2.28,-5.53,-18.61
4310,-80.25,294.06,242.19,4.11,-6.43,-16.37
4320,-109.37,274.81,233.44,6.37,-7.14,-15
4330,-126.94,250.44,207.75,8.25,-6.59,-11.46
4340,-130.69,216.87,182.25,8.49,-6,-9.92
4350,-112.56,158,164.56,8.69,-5.57,-9.28
4360,-70.44,76.5,150.25,8.67,-5.76,-14.25
4370,-15.31,1.69,142.69,8.93,-6.56,-19.1
4380,18,-31.69,136.94,8.98,-7.25,-23
4390,12.94,-8,133.87,8.99,-9.47,-25.75
4400,-26.81,50.75,135.37,8.73,-10.69,-24.35
4410,-87.69,101.5,132.62,8.89,-11.18,-21.72
4420,-132.37,122.25,121.56,8.99,-10.98,-19.3
4430,-131.87,116,103.62,9.16,-10.22,-18.19
4440,-99.12,100.5,88.19,9.46,-10.43,-19.04
4450,-65.25,94.62,76.62,9.79,-10.83,-19.81
4460,-47.94,106.12,64.44,10.17,-11.8,-19.25
4470,-44.94,128.31,51.94,10.28,-12.37,-18.27
4480,-44.13,149.25,34.44,10.54,-12.6,-16.95
4490,-37.13,164.75,3,10.96,-12.33,-15.58
4500,-20.75,169.5,-41.13,10.43,-10.65,-13.82
4510,-3.37,165.62,-84.25,10.21,-9.32,-12.75
4520,14.38,157.19,-114.81,9.95,-8.1,-12.17
4530,28.37,147.37,-133.87,9.64,-6.33,-11.95
4540,27.56,138.06,-142.44,9.77,-5.99,-11.89
4550,7.25,131.87,-145,9.92,-5.87,-11.58
4560,-24.56,131.06,-149.69,10.33,-5.78,-10.89
4570,-53.31,134.5,-165.37,9.99,-3.98,-8.03
4580,-59.31,135.94,-197.5,8.68,-1.34,-6.34
4590,-32.94,127.69,-223.37,7.24,0.8,-5.6
4600,11.19,109.69,-220.69,7.83,2.31,-5.63
4610,47.44,85.56,-201.81,8.4,2.35,-6.38
4620,59.69,62.31,-186.69,8.86,2.3,-6.91
4630,46.44,45.25,-183.37,8.62,3.2,-6.58
4640,23.62,28.37,-188.31,8.2,3.88,-6.09
4650,7.75,5.62,-198.12,7.65,5.06,-6.19
4660,8.75,-18.06,-209.06,6.81,6.52,-6.58
4670,16.25,-38.75,-208.37,6.02,8.44,-8.21
4680,27.44,-49.25,-201.25,5.51,8.57,-9.32
4690,30.06,-52.63,-179.31,5.74,8.55,-10.12
4700,16.56,-48.81,-155.69,6.59,8.14,-10.52
4710,-6.56,-34.5,-134.75,6.63,7.78,-9.97
4720,-31.25,-20.19,-127.44,6.89,7.99,-8.85
4730,-53.63,-14.19,-130.31,6.75,8.27,-7.51
4740,-63.94,-20.25,-139.06,6.38,9.52,-5.73
4750,-61.19,-37.63,-154.69,5.83,10.62,-5.52
4760,-51.56,-66.19,-169,5.37,11.91,-5.51
4770,-36.69,-100.44,-174.12,4.48,13.76,-7.16
4780,-18.75,-135.12,-165.19,4.42,14.25,-8.65
4790,0.19,-154.75,-147.75,4.33,14.51,-10.15
4800,17.81,-157.5,-132.44,4.28,14.71,-11.41
4810,33.31,-149.56,-125.19,3.17,15.57,-12.76
4820,49.19,-141.69,-123.25,2.6,16.45,-13.32
4830,56.31,-134.31,-119.94,1.9,17.18,-13.88
4840,55.69,-131.5,-107.06,1.16,18.4,-14.54
4850,54.75,-130,-83.19,1.02,18.5,-15.16
4860,55.88,-127.87,-54.31,0.79,18.41,-15.77
4870,54.88,-121.12,-27.06,1.01,17.98,-16.57
4880,47.31,-112.25,-0.62,0.9,17.55,-16.52
4890,33.63,-106.37,20.69,0.69,17.2,-16.32
4900,24.12,-104.37,35.63,0.58,16.89,-15.98
4910,28.19,-104,46.88,0.38,16.5,-15.86
4920,46.94,-100.5,53.5,0.28,16.52,-16.22
4930,69.37,-95.62,60.06,0.04,16.32,-16.95
4940,78.56,-90.19,72.31,-0.5,15.76,-17.21
4950,69.37,-83.87,90,-0.47,14.82,-16.98
4960,49.69,-83.44,114.25,-0.14,13.59,-16.66
4970,28.25,-88.94,135.31,0.33,12.54,-16.39
4980,20.31,-93,147.44,0.93,10.69,-15.73
4990,27.19,-96.31,148,1.05,10.26,-15.4
5000,43.5,-99.19,142.25,0.69,10.05,-15.08
5010,66.44,-103.5,140.06,0.25,9.21,-15.85
5020,87,-109.87,145.69,-0.04,8.53,-16.69
5030,88.25,-120.75,154.25,-0.26,7.96,-17.43
5040,75.12,-132.94,168.87,-0.31,6.91,-17.89
5050,62.5,-139.69,188.25,0.66,4.16,-18.31
5060,59.5,-138.81,201.19,1.03,2.62,-18.79
5070,58.94,-130.87,200.87,1.67,1.3,-19.09
5080,52.69,-116.06,188.62,2.1,-0.32,-18.26
5090,41.38,-98.31,166,1.56,-0.62,-17.16
5100,24.75,-87.37,144.56,0.82,-0.8,-15.76
5110,8.94,-98.56,135.31,0.45,-1.74,-14.96
5120,8.19,-128.94,134.62,0.42,-2.6,-15.99
5130,19.06,-163.06,134,0.45,-3.35,-17.24
5140,34.44,-183.31,124.31,0.69,-4.05,-18.45
5150,42.5,-186.44,106.62,0.44,-4.76,-19.56
5160,41.38,-177.87,83.06,0.14,-4.92,-19.59
5170,37.88,-165.5,59.81,-0.17,-5.12,-19.54
5180,31.62,-154.56,37.06,-0.69,-5.03,-18.88
5190,22.31,-147.5,10.69,-1.23,-4.71,-18.48
5200,11.44,-151.62,-15.88,-2,-4.06,-18.48
5210,1.62,-168.25,-41.13,-3.08,-2.96,-18.53
5220,4.87,-182.5,-56.81,-4.18,-1.52,-20.1
5230,17.31,-187,-64.94,-4.98,-1.06,-21.09
5240,18.44,-186.56,-73.94,-5.96,-0.6,-21.81
5250,10.31,-183.25,-77.81,-6.49,-0.4,-23.03
5260,1.87,-177.37,-80.5,-6.93,-0.18,-23.34
5270,-0.56,-162.69,-88.56,-7.05,0.13,-23.56
5280,2,-138.37,-95.31,-7.36,0.3,-23.62
5290,0.62,-110.5,-101,-7.91,0.56,-23.03
5300,-10.44,-86.75,-107.44,-8.54,0.89,-22.4
5310,-27.12,-73.62,-110,-9.18,1.13,-21.77
5320,-38.44,-71.75,-109.31,-9.81,1.5,-21.94
5330,-36.25,-73.31,-109.12,-10.09,1.36,-22.84
5340,-24.69,-71.37,-110.69,-10.61,1.35,-23.74
5350,-13.69,-61.63,-119.44,-11.15,2.33,-25.13
5360,-4.06,-40.5,-128,-11.45,2.53,-25.67
5370,-3.81,-18.06,-134,-12.25,3.02,-26.14
5380,-16.31,-0.62,-142.5,-12.81,3.99,-25.91
5390,-21.75,18.31,-147.5,-14.24,5.77,-26.1
5400,-10,42.5,-142.06,-14.25,5.64,-26.62
5410,-0.31,70.12,-127.62,-13.99,5.27,-26.99
5420,-9.75,100.19,-113.31,-13.62,4.93,-25.08
5430,-30.31,130,-102.12,-13.25,4.84,-23.8
5440,-38.63,155.06,-90.44,-12.41,4.17,-23.1
5450,-39,176.31,-78.62,-11.51,3.32,-22.3
5460,-47.94,192.69,-74,-10.66,3.25,-19.43
5470,-54.19,204.94,-77.06,-10.08,3.63,-18.12
5480,-46.94,213,-77.31,-9.38,3.72,-17.22
5490,-37.88,213.25,-74.62,-8.25,3.67,-15.99
5500,-39.19,208,-72.62,-7.65,3.71,-15.38
5510,-46.19,201.75,-70.37,-6.77,3.9,-14.49
5520,-48.56,198.12,-69.44,-5.98,4.06,-13.66
5530,-44.13,196.94,-69.62,-4.83,4.43,-12.18
5540,-41.88,194.56,-71.37,-4.12,4.76,-11.37
5550,-43.13,189.31,-72.31,-3.44,5.04,-10.51
5560,-47.75,175.94,-75.94,-3.54,6.31,-8.86
5570,-48,154,-81.69,-3.38,7.08,-8.44
5580,-39.13,124.25,-82.25,-3.36,7.56,-8.45
5590,-27.62,85.12,-75.81,-3.8,8.61,-9.48
5600,-27.62,85.12,-75.81,-4.29,9.08,-11.32
5610,3.62,-16,-55.13,-4.39,9.32,-13.92
5620,27.37,-47.38,-45.19,-4.54,9.59,-16.71
5630,51,-47.25,-41.44,-5.13,10.67,-20.23
5640,68.56,-23.19,-36.69,-5.85,11.65,-20.49
5650,85.5,9.5,-35.25,-6.88,13.17,-20.33
5660,105.94,33.81,-26.69,-8.48,15.04,-21.23
5670,119.44,44.31,5.5,-8.34,14.18,-22.84
5680,108.5,41.81,59.75,-7.66,12.33,-24.49
5690,68,37,113.81,-6.55,10.41,-25.01
5700,68,37,113.81,-5.26,8.45,-24.49
5710,31.25,42.44,147,-4.79,7.7,-24.78
5720,57.81,84.19,165.5,-4.14,7,-25.22
5730,70.62,105.31,167.81,-3.87,6.54,-24.72
5740,66.75,118.25,172.81,-3.4,5.99,-24.39
5750,66.75,118.25,172.81,-2.73,4.93,-24.41
5760,58,123.31,188.75,-2.33,3.53,-24.62
5770,8.94,113.25,247.94,-0.94,-0.81,-24.8
5780,-33.75,101.5,285.87,-0.19,-2.98,-24.69
5790,-73.44,81.62,311.06,0.06,-4.48,-24.69
5800,-73.44,81.62,311.06,0.06,-4.48,-24.69
5810,-92,60.88,316.81,1.67,-6.98,-25.98
5820,-50.38,69.56,288.06,2.41,-7.86,-26.51
5830,-20.87,113.56,257.44,4.48,-9.05,-25.38
5840,-17.19,170,220.44,5.21,-8.71,-22.7
5850,-17.19,170,220.44,5.21,-8.71,-22.7
5860,-36.38,218.25,183.37,6.94,-6.9,-16.33
5870,-30.31,254.62,130.25,8.35,-5.73,-12.84
5880,0.06,244.94,111.75,8.85,-5.5,-12.17
5890,23.44,223.37,95.81,9.67,-5.61,-12.01
5900,23.44,223.37,95.81,9.42,-4.6,-11.15
5910,27.25,194,82.87,9.42,-4.6,-11.15
5920,21.06,111.69,80.81,10.47,-5.93,-13.7
5930,6.44,71.94,84.62,10.9,-6.79,-15.49
5940,-22.69,63.44,79.06,10.97,-7.59,-16.16
5950,-22.69,63.44,79.06,10.97,-7.59,-16.16
5960,-59.75,73.62,70.69,10.6,-7.69,-15.63
5970,-107.12,81.69,57.5,9.46,-7.76,-14.52
5980,-106.25,72.25,61.94,9.44,-8.54,-15.36
5990,-106.81,50.5,68.5,9.67,-9.18,-16.37
6000,-106.81,50.5,68.5,9.67,-9.18,-16.37
6010,-107.94,30.69,62.19,9.84,-9.93,-18.26
6020,-81.44,54.88,13.31,8.99,-9.94,-19.17
6030,-62.13,101.69,-22.37,10.44,-9.38,-18.09
6040,-48.63,151.37,-53.5,9.06,-9.03,-15
6050,-48.63,151.37,-53.5,9.06,-9.03,-15
6060,-50,177.62,-79.81,9.48,-7.84,-13.2
6070,-36.56,193.37,-123.25,9.31,-5.53,-9.93
6080,-36.56,193.37,-123.25,9.46,-4.8,-9.25
6090,-24.5,180.06,-137.94,9.82,-4.25,-8.85
6100,-19.81,153.37,-148.44,9.82,-4.25,-8.85
6110,-20.69,122,-157.94,9.84,-3.78,-8.78
6120,-22.81,97.06,-176.19,8.97,-0.28,-8.89
6130,-21.37,84.12,-196.75,8.5,1.3,-8.54
6140,-13.31,85.5,-215.81,8.47,2.33,-7.73
6150,2.56,96.5,-218.37,8.47,2.33,-7.73
6160,0.25,115.12,-212.19,8.55,2.66,-7.39
6170,0.25,115.12,-212.19,8.29,3.45,-5.81
6180,-27.19,113.75,-213.56,8.22,4.01,-3.71
6190,-60.06,101.69,-215.87,8,4.61,-2.98
6200,-79.81,83.12,-218.56,8,4.61,-2.98
6210,-59.63,31.69,-249.87,7.41,5.6,-2.46
6220,-59.63,31.69,-249.87,5.62,8.98,-3.43
6230,-31.87,7.94,-269.19,5,10.17,-3.85
6240,-13.25,-16.31,-283.31,3.96,12.04,-4.45
6250,-9.5,-40.06,-288.19,3.96,12.04,-4.45
6260,-25.31,-82,-273.25,3.35,12.8,-4.61
6270,-25.31,-82,-273.25,1.64,14.29,-5.09
6280,-35.5,-106.94,-263.75,0.77,15.66,-6.13
6290,-33.88,-146.31,-236.87,0.22,16.26,-7.12
6300,-25.19,-158,-220.5,0.22,16.26,-7.12
6310,-17.5,-155.81,-203.44,0,16.87,-8.01
6320,-17.5,-155.81,-203.44,-0.11,18.18,-9.11
6330,-11.56,-141.44,-183.12,-0.46,18.64,-8.97
6340,-19.62,-122.31,-145.94,-0.83,19.14,-8.77
6350,-24.81,-125.69,-131.19,-0.83,19.14,-8.77
6360,-19.62,-131.37,-117.25,-1.35,19.88,-9.04
6370,-11.06,-139.56,-102.81,-2.11,20.15,-10.33
6380,-1.06,-141,-91,-2.34,20.9,-10.14
6390,13.5,-130.19,-81.87,-3.43,21.31,-10.7
6400,37.19,-115.5,-75.19,-3.43,21.31,-10.7
6410,60.19,-94.44,-66.19,-3.6,22.4,-10.52
6420,69.37,-83.25,-51.06,-3.87,23.29,-10.01
6430,61.94,-87.44,-30.69,-4.16,23.17,-9.86
6440,51.56,-101.06,-8.19,-4.47,22.92,-9.83
6450,47.19,-111.75,11.81,-4.47,22.92,-9.83
6460,48.06,-121.87,31.94,-5.49,22.88,-9.5
6470,55.38,-133.75,56.63,-5.83,21.58,-10.1
6480,68.44,-142.75,82,-4.9,19.08,-11.19
6490,80.44,-149.62,105.12,-4.47,17.94,-11.82
6500,88.06,-150.87,121.94,-4.47,17.94,-11.82
6510,90.25,-148.25,133.56,-4.19,16.73,-12.23
6520,77.31,-150.94,140.81,-3.75,13.65,-12.78
6530,52.38,-160.94,148.5,-3.5,12.49,-12.85
6540,29.31,-175.44,154.87,-3.33,11.53,-12.98
6550,16.12,-187.37,153.94,-3.33,11.53,-12.98
6560,14.63,-198.19,147.37,-3.44,10.51,-13.33
6570,22.12,-208.12,143.19,-3.45,9.15,-14.3
6580,32.13,-216.69,144.19,-3.08,8.31,-14.82
6590,39.13,-223.69,140.25,-3.08,8.31,-14.82
6600,40.31,-230.75,129.19,-2.97,7.32,-16.45
6610,35.5,-232,114.37,-3.16,7.25,-17.1
6620,33.5,-228.19,100.94,-3.28,7.43,-17.29
6630,36.06,-224,90.31,-3.54,7.32,-18.17
6640,40.44,-219.06,80.69,-3.78,7.37,-18.52
6650,47.25,-209.31,72.56,-3.98,7.44,-19.11
6660,43.5,-197.31,71.31,-4.28,7.14,-19.66
6670,32.31,-185.25,70.87,-4.24,6.28,-19.36
6680,21.75,-181.62,68.12,-4.49,5.77,-19.19
6690,12.13,-186.94,60,-5.02,5.17,-19.33
6700,2.25,-196.75,49.13,-5.4,4.63,-20.31
6710,-5.37,-204.06,38,-5.45,4.37,-20.81
6720,-10.31,-201.19,26.06,-5.55,4.41,-21.01
6730,-14.31,-192.87,12.31,-5.56,3.75,-21.73
6740,-17.87,-176.94,-10.56,-5.68,3.45,-22.27
6750,-14.63,-146.62,-43.75,-5.68,3.29,-22.18
6760,2.81,-112.81,-83.81,-6.23,3.46,-21.77
6770,39.44,-74.94,-123.81,-6.88,4.65,-21.11
6780,77.06,-37.19,-152.37,-6.87,5.11,-21.5
6790,82.44,-5.69,-169.12,-7.11,5.5,-21.88
6800,53.44,16.62,-181.94,-8.49,7.47,-19.93
6810,23.12,25.5,-184.62,-9.77,8.61,-18.51
6820,7.56,19.81,-168.06,-10.33,8.94,-17.87
6830,-0.69,9.88,-146.56,-10.25,8.58,-17.98
6840,-13.38,8.69,-132.56,-9.57,7.46,-19.55
6850,-35.38,19.62,-126.81,-9.38,7.02,-19.61
6860,-58.81,33.63,-129.12,-9.39,6.66,-19.18
6870,-75.56,41.25,-138.25,-10.42,6.79,-18.09
6880,-75.94,44,-152.81,-11.05,7.45,-17.78
6890,-47.5,54.75,-171.87,-12.16,8.71,-17.61
6900,-4,70.12,-179.62,-13.25,9.9,-18.04
6910,22.62,82.19,-175.87,-14.45,11.55,-20.02
6920,21.25,96.12,-161.81,-14.57,12.06,-21.04
6930,-2.56,118.37,-139.06,-14.55,12.16,-21.59
6940,-31.62,150.19,-115.87,-13.92,11.92,-20.14
6950,-53,180.56,-97.81,-13.82,11.5,-18.61
6960,-61.88,197.75,-83.12,-13.21,11,-17.13
6970,-57.88,198.87,-76.69,-12.36,9.97,-15.15
6980,-37.88,196.75,-81.5,-11.85,9.99,-14.62
6990,-3.5,200,-90,-11.62,10.11,-14.48
7000,25.69,208.62,-95.75,-11.51,10.14,-14.71
7010,29.94,216.25,-95,-10.85,10.2,-14.52
7020,6.37,218.75,-86.87,-10.34,9.96,-14.01
7030,-28.44,217.06,-76.75,-9.76,9.68,-12.81
7040,-51.81,210.56,-68.81,-9.08,9.2,-10
7050,-56.25,195.62,-69.12,-8.85,9.18,-9.01
7060,-43.06,169.5,-78.31,-8.86,9.55,-8.47
7070,-17.62,131.94,-92.37,-8.96,10.19,-8.34
7080,17.06,91.44,-108.31,-9.85,12.64,-9.73
7090,53.63,60.69,-112.19,-10.55,13.93,-11.48
7100,71.12,44.31,-97.56,-11.01,14.74,-13.47
7110,64.69,39.94,-74.31,-11.35,15.62,-15.46
7120,50.06,38.19,-49.44,-11.61,15.92,-15.37
7130,48.38,32.25,-22.44,-11.83,16,-15.21
7140,66.62,26.62,6.12,-11.56,15.61,-15.38
7150,92.19,22.5,27.44,-10.52,13.62,-16.63
7160,119.06,18.75,35.38,-9.84,13.14,-17.22
7170,153.75,19.31,39.69,-9.93,13.19,-17.95
7180,189,22.94,54.31,-9.17,11.99,-20.88
7190,205.25,29.31,68.87,-8.49,11.13,-22.89
7200,193.5,50,80,-8.62,10.6,-24.42
7210,163.44,82.87,97.25,-9.23,9.95,-24.02
7220,127.44,108.94,123.5,-8.74,9.34,-22.77
7230,92.62,118.69,154.12,-8.03,8.48,-21.47
7240,64,112,179.94,-7.2,7.65,-20.46
7250,48.19,98.5,201.81,-6.81,6.14,-19.9
7260,40.31,89.94,226.06,-6,4.79,-20.48
7270,25,85.94,244.37,-5.07,3.25,-21.11
7280,1.69,87.25,250.31,-3.47,1.29,-20.9
7290,-11.88,92.19,251.31,-2.64,0.63,-20.49
7300,-11.44,97.5,249.25,-1.82,-0.04,-20.22
7310,-5.44,102.75,239.25,-0.78,-0.55,-20.02
7320,7.62,111.25,223.69,0.9,-0.41,-19.33
7330,30.56,125.62,213.06,1.68,0.23,-19.16
7340,52.38,144.25,213.12,1.96,0.33,-19.09
7350,41.81,145.5,225.44,1.55,-0.76,-19.38
7360,2.56,122.69,251.31,1.86,-2.23,-19.87
7370,-41.13,88.25,271,2.17,-3.63,-20.41
7380,-64.75,61.63,274.87,3.96,-5.76,-21.53
7390,-63.31,54.19,260.62,4.98,-6.61,-22.46
7400,-60.31,70.19,232.19,5.46,-7.19,-23.5
7410,-79.94,95.87,202.94,5.56,-7.35,-23.84
7420,-110.87,116.19,180.25,5.47,-7.53,-22.49
7430,-129.56,131.5,155.56,5.95,-7.2,-21.16
7440,-121.94,137.12,125.06,6.06,-6.37,-19.56
7450,-85.87,130.56,97.19,5.39,-4.92,-18.17
7460,-39.94,121.31,79.56,5.87,-4.91,-18.63
7470,-11.06,113.56,67.12,6.39,-5.19,-19.55
7480,-6.56,111.06,51.56,7.29,-5.37,-20.23
7490,-11.5,122.62,27.37,8.1,-5.1,-20.77
7500,-17.12,150.75,1.44,7.97,-4.58,-20.09
7510,-26.69,179.19,-14.06,7.63,-4.01,-18.85
7520,-40.19,193.56,-18.62,7.26,-3.28,-16.27
7530,-51.38,192.06,-17.69,7.8,-3.1,-15.06
7540,-53.81,180.69,-19,8.04,-2.89,-14.13
7550,-46.44,166.37,-21,8.41,-2.81,-13.34
7560,-38.75,151.94,-21.19,8.66,-3.67,-13.9
7570,-34.56,147,-28.31,10.12,-3.81,-13.68
7580,-31.94,141.06,-41.38,9.94,-4.31,-13.62
7590,-25.44,147.25,-59.19,10,-4.04,-13.08
7600,-15.44,161.06,-76.37,10.08,-3.83,-12.41
7610,-7.12,174.44,-92.69,10.17,-3.12,-11.26
7620,-2.81,182.94,-101.19,9.12,-2.7,-10.7
7630,-11.5,191.06,-113,9.97,-3.16,-9.77
7640,-34.19,191.62,-145.5,10.21,-1.99,-8.15
7650,-38.94,188.69,-179.62,10.16,-0.32,-6.16
7660,-22,171.56,-209.19,8.81,2.11,-3.6
7670,5.19,141.37,-220.06,8.45,3,-3.25
7680,30.5,110.81,-220.87,8.38,3.6,-3.29
7690,44.69,85.94,-216.25,7.97,4.98,-3.36
7700,44.88,58.63,-206.31,7.6,5.38,-3.57
7710,27.62,32.63,-194.62,7.67,5.65,-3.45
7720,2.31,6.87,-188.06,7.57,6.06,-3
7730,-11.44,-22.25,-194.62,6.81,8.28,-2.13
7740,-6.31,-66.19,-198.19,5.93,9.88,-2.05
7750,14.38,-105.75,-188.62,5.25,11.22,-2.43
7760,41.06,-139.25,-168,5.03,11.41,-5.1
7770,58.69,-160.37,-155.44,4.99,11.07,-7.22
7780,52.31,-166.31,-156.37,4.62,11.03,-8.73
7790,32.69,-162.06,-163.44,4.32,11.36,-9.45
7800,16.75,-154.12,-170.81,3.61,12.47,-9.7
7810,11.19,-146,-177.31,3.35,13.13,-9.85
7820,14.19,-142.12,-187.87,2.81,14.19,-9.83
7830,27.31,-144.37,-194,1.7,16.93,-9.9
7840,49.94,-152,-190.69,0.62,18.14,-10.5
7850,75,-155.87,-179.5,-0.12,19.13,-11.39
7860,92.87,-161.94,-161.5,-0.81,20.22,-12.95
7870,111.12,-164.87,-145,-1.63,20.29,-13.58
7880,132.37,-169.25,-135.56,-2.19,20.88,-15.48
7890,146.5,-161.25,-123.56,-2.73,21.68,-16.72
7900,152.19,-149.62,-100.75,-3.94,22.44,-19.05
7910,146.37,-133.19,-69.56,-4.62,22.57,-19.77
7920,132.5,-116.62,-31.94,-5.31,22.45,-20.34
7930,114.62,-96.37,11.38,-5.69,21.54,-21.13
7940,91.56,-73.62,54.81,-5.6,20.66,-21.28
7950,65.19,-51.5,93.31,-5.42,19.63,-20.73
7960,44.56,-31.75,126.69,-4.76,18.34,-19.63
7970,31.06,-20.87,152.56,-3.12,15.2,-17.18
7980,22.69,-18.69,169.62,-2.28,13.62,-16.34
7990,18.06,-23.25,176.19,-1.56,12.55,-15.63
8000,16.5,-31.5,177.31,-1.43,11.35,-14.53
8010,16.69,-42.69,178.56,-1.31,10.85,-14.17
8020,16.75,-58.31,182.56,-1.7,10.31,-14.14
8030,14.38,-76.37,190.12,-2.09,9.79,-14.36
8040,11.13,-93.69,201.87,-2.28,7.92,-15.59
8050,5.25,-108.37,213.75,-1.96,6.66,-16.57
8060,-3.56,-114.69,221,-1.23,5.3,-17.23
8070,-7.06,-108.75,217.62,-0.27,3.38,-17.37
8080,-3.94,-94.5,207.81,0.27,2.69,-16.9
8090,-2.87,-89,196,0.53,2.09,-16.47
8100,-2.94,-90.56,180.44,0.49,1.31,-15.52
8110,0,-95.37,165.12,0.39,0.94,-14.86
8120,9.56,-108.06,152.62,0.35,0.54,-14.6
8130,24.94,-124.19,140.37,0.35,0,-14.97
8140,34.81,-141.56,128.31,0.28,-0.72,-16.51
8150,40.75,-153.81,115.37,0.31,-0.83,-17.45
8160,47.69,-152.56,103.81,0.27,-1.27,-18.32
8170,46.19,-145.75,91.44,0.46,-2.25,-19.17
8180,37.38,-138.87,72.44,0.22,-2.09,-19.28
8190,25.62,-136.69,53.75,-0.28,-2.03,-19.43
8200,16.75,-135.87,39.13,-0.62,-2.03,-19.4
8210,18.62,-131.44,24.75,-0.89,-1.99,-19.13
8220,25.56,-127.56,11.56,-1.1,-2.07,-19.37
8230,25.75,-128,0.75,-1.21,-2.18,-19.78
8240,16.94,-131,-8.81,-1.15,-2.83,-20.37
8250,7.12,-134.94,-24.44,-1.37,-2.89,-20.45
8260,7.12,-134.94,-24.44,-2.23,-2,-20.67
8270,8.06,-127.75,-63.38,-2.93,-1.48,-21.37
8280,3.44,-114.06,-78.31,-3.34,-0.96,-21.63
8290,-1,-104.56,-93.25,-3.85,-0.61,-21.28
8300,8.13,-97.75,-110.44,-3.94,-0.28,-21.09
8310,28.75,-93.69,-130.75,-5.24,1.32,-21.76
8320,28.75,-93.69,-130.75,-6.08,2.01,-22.4
8330,49.38,-78.69,-142.56,-6.85,2.3,-23.06
8340,25.5,-72.44,-132.56,-7.22,2.22,-23.83
8350,-14.75,-66.62,-120.75,-7.41,1.97,-23.51
8360,-14.75,-66.62,-120.75,-7.69,2.15,-22.67
8370,-48.06,-58.63,-117.56,-7.78,2.38,-21.95
8380,-29.94,-36.06,-129.81,-8.65,3.17,-21.81
8390,-15.13,-29.5,-136.19,-9.25,3.42,-22.12
8400,-17.94,-30.06,-135.87,-9.84,3.49,-22.61
8410,-17.94,-30.06,-135.87,-10.96,3.81,-23.52
8420,-34.25,-33.44,-135.19,-11.83,4.29,-24.11
8430,-48.25,-39.44,-142.94,-12.36,5.04,-25.06
8440,-35.94,-24.31,-149.06,-12.7,5.65,-25.98
8450,-24.19,1.44,-155.44,-14.19,7.58,-27.19
8460,-24.19,1.44,-155.44,-14.19,7.58,-27.19
8470,-11.81,40.31,-152.94,-14.46,8.27,-27.26
8480,-10.38,129.62,-123.06,-13.88,7.89,-25.23
8490,-24.62,158.87,-111.69,-13.39,7.79,-23.62
8500,-30.5,178.94,-99.75,-12.72,7.45,-22.16
8510,-30.5,178.94,-99.75,-12.72,7.45,-22.16
8520,-27.62,191.06,-92.37,-11.78,6.98,-20.93
8530,-19.44,204.19,-85.87,-9.73,6.55,-18.08
8540,-21.87,205.94,-82.06,-8.94,6.43,-17.29
8550,-26.44,205.5,-79.81,-7.58,6.29,-15.23
8560,-26.44,205.5,-79.81,-7.58,6.29,-15.23
8570,-28.19,206.25,-78.5,-5.73,6.07,-13.32
8580,-30.44,202.25,-80.44,-4.85,6.84,-10.96
8590,-27.75,194.87,-81,-4.52,7.45,-10.01
8600,-25.25,180.37,-75.12,-4.13,7.71,-9.27
8610,-25.25,180.37,-75.12,-4.13,7.71,-9.27
8620,-31.69,157.37,-62.81,-3.38,7.71,-8.61
8630,-50.81,92.31,-45.75,-2.27,8.03,-6.62
8640,-42.25,55.56,-39.88,-2.3,8.26,-6.49
8650,-27.87,10.44,-34.69,-2.94,9.24,-7.34
8660,-27.87,10.44,-34.69,-2.94,9.24,-7.34
8670,-8.44,-39.06,-31.94,-3.72,10.18,-8.81
8680,50.69,-99.44,-21.5,-5.03,11.6,-14.17
8690,70.94,-93.94,-15.63,-6.93,13.63,-18.35
8700,77.19,-80.94,1,-8.01,14.64,-19.69
8710,77.19,-80.94,1,-8.01,14.64,-19.69
8720,76.25,-66.5,27.44,-8.93,15.7,-20.5
8730,80.94,-50.81,65.56,-10.96,14.71,-24.53
8740,81,-32.63,126.19,-9.88,11.42,-26.2
8750,42.38,-18.12,194.25,-8.75,8.98,-26.05
8760,-29.44,-10.19,232.62,-8.75,8.98,-26.05
8770,-67.12,-0.75,244.94,-7.19,6.68,-23.59
8780,-45.25,9.5,242.19,-5.96,5.86,-23.72
8790,8.56,20.12,219.5,-5.54,6.58,-25.94
8800,66.56,36.94,195.75,-5.79,7.17,-26.85
8810,103.19,60.94,180.56,-5.79,7.17,-26.85
8820,109.25,86.62,179.19,-5.88,7.55,-27.29
8830,90.44,110.62,196.37,-3.88,5.5,-25.22
8840,51.88,129.81,220.62,-3.06,4.61,-23.2
8850,8.88,139.5,242.5,-1.91,3.28,-21.6
8860,-19.25,134.31,263.75,-1.91,3.28,-21.6
8870,-30.31,122.37,275.94,-0.28,0.59,-20.09
8880,-35.25,106.69,281.37,1.26,-1.64,-19.99
8890,-39.75,85.94,283.56,3.07,-3.22,-20.86
8900,-38.81,68.94,279,3.87,-3.91,-21.64
8910,-33.25,59.81,269.37,3.87,-3.91,-21.64
8920,-31.69,59.31,251.19,4.5,-4.52,-22.49
8930,-39,72.81,229.87,4.81,-5.36,-21.5
8940,-51.25,93.19,206.75,4.72,-5.49,-20.83
8950,-63.44,104.12,188.19,5.43,-6.01,-20.41
8960,-74.56,102.62,178.37,5.43,-6.01,-20.41
8970,-78.62,93.75,166.94,6.44,-6.77,-20.4
8980,-72.12,91.62,154.69,8.04,-7.69,-20.22
8990,-60.13,97.25,139,8.32,-8.08,-19.97
9000,-46,111.62,115.56,7.45,-7.77,-18.05
9010,-39.19,127,87.37,7.45,-7.77,-18.05
9020,-41.56,114.87,63.81,7.35,-7.46,-17.66
9030,-42.44,86.69,45.13,7.5,-7.51,-20.41
9040,-39.13,76.5,27.81,7.13,-7.38,-20.81
9050,-36.31,78.62,10.63,6.7,-7.16,-21.02
9060,-35.44,86.25,-7.62,6.7,-7.16,-21.02
9070,-35.38,99.31,-25.06,6.34,-6.92,-21.29
9080,-37.69,114.62,-40.38,7.32,-6.9,-20.36
9090,-40.06,134.62,-60.88,6.93,-5.32,-18.46
9100,-31.94,160.56,-96,5.63,-1.87,-15.44
9110,-8.13,180.31,-123.06,5.63,-1.87,-15.44
9120,18.44,189.44,-131.37,6.28,-1.05,-14.91
9130,32.31,193.5,-131.37,6.86,-0.95,-12.6
9140,24.31,191.56,-131.12,7.26,-1.26,-11.7
9150,2,184.44,-130.75,7.91,-1.74,-10.61
9160,-24.19,173.94,-133.62,7.91,-1.74,-10.61
9170,-42.13,161.94,-149.25,8.67,-1.82,-9.29
9180,-35.5,152.94,-187.31,5.63,4.8,-6.1
9190,0.19,142.87,-212.94,5.72,5.69,-6.7
9200,41.31,128.06,-202.19,7,4.28,-8.15
9210,51.06,113.19,-174.44,7,4.28,-8.15
9220,15.94,101.5,-161.69,7.38,4.2,-7.66
9230,-35.25,89.69,-158.81,7.36,4.18,-4.92
9240,-65,72.69,-160,6.94,5.37,-3.76
9250,-60.25,54.88,-175.25,6.94,5.37,-3.76
9260,-33,40.06,-195.12,6.37,6.77,-4.01
9270,-4.37,26.75,-203.44,5.98,7.99,-4.83
9280,7.75,16.12,-201,5.59,9.5,-6.07
9290,4.37,5.19,-194.81,5.38,10.18,-6.45
9300,-7.69,-3.81,-190,5.21,10.93,-6.47
9310,-17.25,-12,-184,5.05,11.77,-6.17
9320,-18.37,-18.62,-178.87,4.92,12.17,-6.18
9330,-13.5,-23.94,-176.87,4.81,12.67,-6.33
9340,-8.94,-29.06,-178.5,4.52,13.41,-6.42
9350,-4.37,-34,-181.25,3.78,15.09,-6.15
9360,3.56,-39.5,-181,3.34,15.89,-6.04
9370,14.06,-49.81,-176.81,2.92,16.72,-6.03
9380,26.19,-64.69,-169.5,2.6,18.13,-7.05
9390,38.5,-77.37,-158.25,2.34,18.58,-7.75
9400,48.38,-85.25,-142,2.34,18.75,-8.47
9410,54,-89.44,-125.44,2.46,18.82,-9.04
9420,59,-92.12,-114.44,2.14,19.17,-9.32
9430,69.62,-95.19,-108.31,1.81,19.54,-9.97
9440,78,-99.94,-106.19,1.19,20.17,-10.84
9450,76.44,-104.5,-102.31,-0.57,22.01,-11.59
9460,72.06,-108.62,-84.94,-1.17,22.49,-11.78
9470,72.25,-110.75,-54.69,-1.45,22.47,-12.03
9480,76.87,-110.56,-22.81,-1.55,22.04,-12.44
9490,76.62,-110.69,5.06,-1.3,20.64,-13.4
9500,67.81,-110.87,26.06,-1.3,19.96,-13.4
9510,61.63,-109.12,40.25,-1.42,19.4,-13.18
9520,62.06,-110.56,50.69,-1.91,18.83,-12.65
9530,70.12,-118.31,58.75,-2.28,18.73,-13.12
9540,78.94,-127.37,71.87,-2.46,18.31,-14.01
9550,79.31,-132.69,88.37,-2.56,17.74,-14.91
9560,69.37,-134.06,104.37,-2.87,16.83,-15.63
9570,59,-133.12,116.81,-2.95,16.53,-15.6
9580,57.13,-129.87,124.69,-3.41,16.49,-15.6
9590,60.88,-127.19,136.44,-4.26,16.22,-15.61
9600,64.31,-131.44,157.62,-4.38,15.24,-16.12
9610,64.62,-140.19,184.06,-3.78,13.76,-16.78
9620,59.56,-143.12,206.37,-3,9.99,-17.61
9630,47.38,-138.25,217.75,-2.88,8.31,-17.55
9640,26.56,-143.19,221,-2.98,6.93,-17.6
9650,8.38,-158.56,220.12,-2.67,5.74,-17.96
9660,6.69,-166.31,211.75,-1.95,4.12,-19.18
9670,22.25,-153.75,195.94,-1.6,3.46,-19.68
9680,38.25,-125.31,180.25,-1.52,2.64,-19.64
9690,34.81,-103.81,168.25,-1.6,1.09,-18.32
9700,13.13,-101.75,156.12,-1.7,0.46,-17.5
9710,-15.63,-125.62,145.87,-1.84,-0.21,-17.43
9720,-32.25,-161.87,133.44,-2,-0.68,-18.24
9730,-26.87,-183.56,117.37,-1.34,-1.66,-20.53
9740,-6.81,-179.5,95.94,-1.11,-2.34,-21.88
9750,2.25,-154.06,66.25,-0.68,-2.75,-22.7
9760,-9.44,-121.37,25.62,-1.55,-1.1,-21.46
9770,-20.69,-94,-13.75,-2.68,0.57,-19.9
9780,-12.75,-82.81,-28.81,-3.04,1.22,-19.32
9790,-1.44,-83.75,-29,-2.34,0.19,-20.46
9800,-6.44,-81.75,-34.63,-2.4,0.08,-20.28
9810,-20.37,-75.19,-46.38,-2.58,0.14,-19.78
9820,-31,-71.37,-61.81,-2.74,0.48,-19.12
9830,-28.75,-68.81,-80.5,-2.8,1.4,-18.71
9840,-17.94,-64.37,-98.44,-2.99,2.21,-18.75
9850,-8.88,-54.88,-114.19,-3.37,2.75,-18.97
9860,-7.81,-39.94,-130.37,-4.15,4.22,-17.59
9870,-12.44,-38.94,-142.94,-5.04,5.09,-16.98
9880,-8.75,-49.31,-150.69,-5.66,5.65,-16.92
9890,2.25,-63.38,-153.56,-6.35,5.99,-17.55
9900,11.5,-72.19,-152.37,-7.1,5.92,-19.84
9910,10.38,-69.81,-146.69,-7.36,5.38,-20.62
9920,-3.62,-60.63,-140.12,-7.25,4.66,-20.93
9930,-23.19,-51.81,-142.81,-7.4,4.57,-20.7
9940,-31.81,-42.44,-161.56,-8.37,5.6,-20.46
9950,-20.62,-30.31,-178.12,-9.3,6.37,-20.57
9960,-5.62,-19.25,-186.44,-9.97,7,-20.66
9970,6.56,-14.38,-192.5,-10.92,8.32,-21
9980,12.94,-15.94,-195.94,-11.33,8.75,-21.53
9990,8.06,-17.44,-195.19,-12.22,9.14,-21.95
10000,2,-13.81,-191.25,-13.02,10.4,-23.24
