timestamp,gyrox,gyroy,gyroz,accx,accy,accz
10,113.87,-127.31,225.5,0,0,0
20,48,-123.25,200.81,0,0,0
30,-10.19,-131.19,180.94,0,0,0
40,-38.94,-124.94,152.62,4.82,-3.24,-19.59
50,-51.63,-121.62,118.5,5.26,-3.59,-19.23
60,-49.06,-121.62,71.87,5.61,-4.21,-17.15
70,-19.75,-118.94,12.5,4.18,-3.43,-16.72
80,3,-121.56,-33.13,4.2,-1.67,-16.91
90,5.06,-133.19,-56.88,2.78,0.14,-16.59
100,26,-150.31,-72.25,1.92,0.59,-16.42
110,79.69,-164.06,-86.94,1.36,1.01,-17.88
120,125.94,-166.75,-98.12,-0.01,1.21,-22.42
130,132.12,-160.44,-102.87,-0.09,0.36,-23.46
140,105.06,-154.75,-112.44,-0.21,-0.19,-23.62
150,70.06,-152.87,-128.31,-0.28,-0.38,-22.92
160,52.75,-143.62,-148.81,-1.31,0.77,-22.87
170,41.69,-120.75,-154.94,-1.5,1.18,-23.01
180,31.62,-98.37,-154.87,-1.95,0.98,-21.76
190,39.19,-86.5,-161.06,-2.88,2.13,-21.81
200,38,-81.81,-161.62,-3.47,2.55,-22.11
210,31,-78.19,-157.62,-3.59,2.84,-22.01
220,31.06,-66.19,-154.5,-3.65,3.27,-22.78
230,10.19,-39.13,-139.56,-3.44,4.05,-25.77
240,-34.06,-7.12,-119.37,-3.42,3.7,-24.74
250,-53.63,11.06,-108.44,-3.44,3.62,-22.63
260,-30.62,17.37,-103.5,-3.68,3.57,-22.13
270,-3.19,21.69,-100.5,-4.58,3.19,-23.84
280,0.19,40.69,-100.06,-4.71,3.1,-24.57
290,-4.94,60.69,-98.37,-5.2,3.77,-23.75
300,-0.19,78,-93.69,-5.3,3.93,-24.18
310,4.94,100.44,-88.12,-5.32,3.95,-24.63
320,5.87,131.31,-81.62,-5.58,3.59,-24.54
330,11.44,169.56,-80.5,-5.1,3.82,-21.3
340,27.12,202.31,-81.31,-5,4,-19.49
350,35.5,202.12,-79.69,-4.69,4.04,-18.22
360,37.44,179.25,-78.75,-4.21,4.25,-17.33
370,38.5,160.5,-75.62,-4.08,4.13,-17.38
380,38.5,160.5,-75.62,-3.51,3.94,-17.07
390,44,152.44,-67.31,-3.03,3.52,-16.7
400,48.69,148.69,-69.19,-2.6,3.11,-15.81
410,53.81,140.37,-72.94,-2.21,3.06,-15.5
420,53.69,130.25,-75.94,-1.81,3.01,-15.26
430,53.69,130.25,-75.94,-1.59,3.15,-15.73
440,16.25,89.25,-87.5,-1.77,4,-16.16
450,-3.94,78.75,-88.31,-2.25,4.94,-16.15
460,-8.88,74.31,-81.12,-2.65,5.82,-15.9
470,-3.5,73.5,-66.37,-2.88,7.59,-16.95
480,-3.5,73.5,-66.37,-3.15,8.34,-17.55
490,-16.25,87.12,-23.81,-3.24,9.14,-17.52
500,-28.56,92.56,3.5,-3.32,10.14,-17.65
510,-47.81,92.62,34.81,-3.16,10.41,-17.69
520,-70,91.19,65.12,-3.22,10.77,-17.78
530,-70,91.19,65.12,-3.27,11.52,-18.23
540,-92.56,90.31,94.5,-2.92,12.02,-18.15
550,-131.37,100.31,178.25,-2.44,11.28,-17.45
560,-125.25,104.5,216.56,-1.99,10.41,-16.59
570,-101.75,106.25,246.87,-0.16,7.21,-15.66
580,-101.75,106.25,246.87,0.53,5.81,-15.87
590,-80.5,103.12,262.69,1.18,4.78,-16.28
600,-103.37,83.31,270.69,2.06,3.28,-17.67
610,-148,66.37,277.94,5.27,3.54,-16.75
620,-158.62,49.88,285,4.38,4.17,-15.58
630,-158.62,49.88,285,2.82,3.24,-16.4
640,-129.12,33.94,300.19,4.71,1.17,-18.84
650,-93.37,40,305.31,6.06,0.96,-19.4
660,-91.87,55.69,297.19,5.73,1.46,-18.82
670,-78.19,72.37,303.62,5,0.28,-17.3
680,-78.19,72.37,303.62,5,0.28,-17.3
690,-69.37,82.12,310.06,5.26,-0.57,-17.2
700,-80.94,88.87,307.62,5.99,-1.98,-15.91
710,-75.12,76.31,302.25,5.59,-3.12,-14.45
720,-57.63,57,300.25,6.57,-4.24,-14.73
730,-57.63,57,300.25,6.57,-4.24,-14.73
740,-38.19,39.06,287.75,7.41,-5.31,-15.6
750,-18.75,47.75,227.81,9.61,-8.33,-18.57
760,-13.31,77.75,186.94,9.74,-8.77,-18.21
770,0,109.44,145.19,9.98,-8.88,-17
780,0,109.44,145.19,9.98,-8.88,-17
790,29.87,135.81,106.75,9.58,-8.35,-14.09
800,93.31,156.81,53.75,10.07,-8.05,-12.45
810,98.75,148.75,34.75,9.97,-7.24,-11.59
820,85.5,127.56,23.94,9.59,-6.78,-10.88
830,85.5,127.56,23.94,9.59,-6.78,-10.88
840,69.5,94.87,19.87,9.64,-6.55,-10.23
850,72.62,35.94,8.81,9.91,-6.45,-12.09
860,66.94,22.5,6.19,9.96,-6.66,-13.95
870,40.5,24.62,10.63,9.92,-7.07,-15.2
880,40.5,24.62,10.63,9.92,-7.07,-15.2
890,5.5,38.56,14,9.96,-8.15,-16.03
900,-35,59.06,9.88,10.01,-9.15,-15.2
910,-81.06,79,-5.31,10.16,-8.54,-11.91
920,-106.75,100.69,-31.5,10.35,-8.15,-10.21
930,-100.12,113.25,-46.94,10.35,-8.15,-10.21
940,-65.25,115.62,-56.94,10.09,-7.68,-8.86
950,-12.81,109.81,-62.38,10.85,-7.92,-8.34
960,34.5,99.44,-72.31,11,-7.72,-8.33
970,58,87.94,-87.75,10.99,-7.3,-8.02
980,61.13,74,-106.62,10.99,-7.3,-8.02
990,59.94,57.13,-123.12,10.59,-6.14,-6.95
1000,66.44,37.31,-135.31,10.48,-5.53,-7.41
1010,79.19,21.12,-146.06,10.18,-5.55,-8.65
1020,78.75,8.13,-156,10.12,-5.37,-8.65
1030,58.5,-4.06,-168.06,10.12,-5.37,-8.65
1040,31.44,-13.44,-183.69,10.15,-4.89,-8.21
1050,17.5,-17.75,-204.44,9.24,-1.34,-5.93
1060,27.31,-24.94,-225.06,8.9,-0.15,-6
1070,50.75,-40.31,-236.62,8.23,1.05,-6.77
1080,74.69,-62.38,-240.06,8.23,1.05,-6.77
1090,86.44,-81.25,-231.62,7.93,2.73,-8.61
1100,84.06,-91.12,-216.25,8.19,3.25,-9.4
1110,75.75,-94.19,-205.19,8.08,3.46,-9.45
1120,72.37,-97.81,-201.87,7.41,4.49,-10.5
1130,75.37,-106.62,-205.19,7.41,4.49,-10.5
1140,76.87,-113.87,-208.94,7.08,5.52,-11.55
1150,66.06,-114.87,-206.19,6.36,9.04,-12.58
1160,44.94,-111.69,-193.94,6.17,9.85,-12.6
1170,21.44,-110.25,-176.12,5.95,10.53,-12.73
1180,3.19,-111.56,-157.62,5.95,10.53,-12.73
1190,-4.87,-110.12,-140.12,5.78,11.16,-12.94
1200,-0.81,-101.81,-122.69,5.42,12.28,-13.02
1210,10.75,-90.31,-106.75,5.24,12.51,-13.08
1220,19.62,-81.87,-93.25,4.8,13.57,-12.96
1230,22.81,-77.06,-84.69,4.8,13.57,-12.96
1240,24.94,-72.81,-74.5,4.46,14.27,-12.73
1250,28.87,-71.62,-54.38,4,14.68,-12.15
1260,36.88,-74.75,-25,4.17,13.8,-12.57
1270,47.94,-80.87,7.5,4.08,12.86,-13.29
1280,53.69,-89.06,33,4.08,12.86,-13.29
1290,47.56,-99,51.31,4.07,12.1,-14.13
1300,32.69,-108.37,65.37,4,9.92,-15.84
1310,18.56,-121.62,71.12,3.72,9.88,-16.41
1320,13.31,-127.94,73.25,3.19,9.95,-18.1
1330,15.88,-129.06,79.06,3.19,9.95,-18.1
1340,19.62,-118.62,91.12,2.89,9.8,-18.78
1350,17.87,-98.5,109.37,2.89,8.66,-18.5
1360,12,-79.5,130.37,3.13,6.65,-17.16
1370,3.87,-69.19,147.25,3.18,5.73,-16.6
1380,-2.5,-68.31,158.56,3.18,5.73,-16.6
1390,-6.69,-75.25,168.94,3.33,4.56,-16.29
1400,-12.13,-85.56,174.31,4.33,0.98,-16.49
1410,-19.5,-96.81,170.31,4.45,0.25,-16.57
1420,-23.5,-107.37,157.5,4.38,-0.12,-16.64
1430,-20.69,-115.06,139.81,4.38,-0.12,-16.64
1440,-11.31,-118.62,123.87,4.28,-0.57,-16.97
1450,-1.25,-120.12,111.56,4.16,-0.93,-17.25
1460,0.62,-123.69,100.19,4.02,-1.43,-17.61
1470,-5.81,-129.44,87.81,3.88,-2.43,-17.79
1480,-13,-135.69,72.5,3.82,-2.74,-17.56
1490,-15.5,-144.25,53,3.71,-3.02,-17.48
1500,-17.94,-155.69,30.94,3.36,-3.04,-17.79
1510,-28.87,-164.75,12.31,2.47,-3.58,-18.9
1520,-46.94,-174.44,-9.13,2.34,-3.8,-18.62
1530,-46.88,-177.81,-34.81,2.66,-3.68,-18.69
1540,-31.31,-170.81,-62.75,2.06,-3.2,-18.66
1550,-7.12,-164.31,-90.81,1.73,-2.45,-18.92
1560,19.81,-151.69,-108.56,1.58,-2.16,-19.17
1570,35.19,-142.75,-121.12,-0.12,-0.92,-20.78
1580,25.62,-139.44,-120.56,-0.14,-0.92,-21.25
1590,1.56,-132,-111.37,-0.14,-1.35,-21.39
1600,-23.69,-122.5,-108.31,-0.35,-1.77,-21.03
1610,-37.31,-113.25,-116.12,0.31,-1.86,-19.78
1620,-30.56,-106,-133.19,-0.62,-1.22,-19.59
1630,-10.81,-101.5,-142.81,-0.91,-0.98,-20.03
1640,2.5,-96,-149.44,-2.01,-0.56,-21.58
1650,3.81,-82.62,-154.56,-2.08,-0.33,-21.66
1660,2.69,-64.06,-157.62,-2.13,-0.01,-21.39
1670,8.75,-46.69,-158.94,-2.55,0.29,-21.16
1680,17.94,-30.5,-155.81,-3.57,0.51,-21.09
1690,20,-18.87,-148,-3.69,0.14,-21.21
1700,9.63,-13.56,-144.12,-3.63,-0.1,-21.23
1710,-10,-14.88,-145.75,-4.4,0.02,-21.84
1720,-31.37,-13.88,-149.87,-4.54,0.29,-21.99
1730,-45.75,-5.62,-152.69,-4.9,0.61,-22.08
1740,-50.44,10.25,-153.31,-5.85,1.57,-21.88
1750,-42.38,33.56,-153.37,-6.13,2.23,-21.56
1760,-22.19,57.13,-150.31,-6.42,2.83,-21.61
1770,-1.5,77.31,-141.69,-6.75,3.25,-21.8
1780,10.94,95.12,-127.94,-6.7,3.59,-21.94
1790,15.25,111.69,-114.75,-6.72,3.76,-21.92
1800,13.38,130.31,-104.19,-6.69,4.13,-21.5
1810,10.81,150.12,-91.5,-6.31,4.51,-19.37
1820,11.25,162.25,-78.12,-5.98,4.51,-18.55
1830,7.56,161.06,-60.94,-5.36,4.18,-18.09
1840,-7.12,149.75,-47.44,-4.92,3.9,-17.88
1850,-25.56,137.56,-40.06,-4.09,3.47,-17.06
1860,-36.63,129.44,-39,-3.86,3.46,-16.63
1870,-37.13,123.69,-42.19,-3.47,3.58,-16.31
1880,-28.37,121.81,-47.56,-3.4,4.2,-16.01
1890,-15.25,124.25,-50.19,-3.2,4.52,-15.81
1900,-3.5,128.75,-47.75,-2.86,4.78,-15.47
1910,2.94,129.06,-40.81,-2.57,4.84,-15.16
1920,1.31,122.5,-32.94,-2,4.6,-14.39
1930,-5.44,111.94,-27.19,-1.53,4.44,-14
1940,-12.44,99.31,-25,-1.16,4.34,-13.75
1950,-16.94,86.62,-28.87,-1.19,4.72,-13.11
1960,-14.5,73.37,-36.69,-1.25,5.24,-12.99
1970,-8.25,59.06,-44.19,-1.33,5.88,-12.88
1980,-0.19,46.31,-51,-1.62,7.49,-12.8
1990,6.62,30.62,-54.5,-1.9,8.31,-13.04
2000,10.25,14.44,-51.25,-2.11,9.04,-13.22
2010,13.25,0.69,-42.69,-2.42,9.67,-13.56
2020,15.44,-11.31,-27.87,-3.05,10.87,-14.52
2030,15.31,-20.37,-5.12,-3.07,11.2,-15.02
2040,12.75,-26.06,23.69,-3.35,11.38,-15.48
2050,9.25,-29.25,55.25,-3.17,11.2,-16.51
2060,2.75,-32,84.87,-3.45,11.26,-17.09
2070,-8.06,-32.63,112.56,-3.64,11.36,-17.33
2080,-16.44,-31.75,144.12,-4.14,11.33,-17.52
2090,-20.12,-30.06,180.62,-3.98,9.54,-18.37
2100,-22.75,-28.31,212.06,-3.64,8.42,-18.76
2110,-22.44,-24.62,234.87,-3.28,7.52,-19.04
2120,-17.87,-19.06,253.44,-2.95,5.79,-19.96
2130,-17.37,-14.69,272.31,-2.8,4.72,-20.57
2140,-27.62,-16.25,291.44,-2.56,3.34,-21.26
2150,-48.56,-24.25,303.19,-2.15,2.1,-21.97
2160,-69.44,-29.87,300.37,-1.29,0.94,-23.62
2170,-85.87,-25.37,294,-1.19,0.63,-24.36
2180,-99.87,-10.81,288.62,-0.69,0.28,-24.94
2190,-111.06,12.38,279.12,0.11,0.07,-24.52
2200,-110.37,43.25,267.62,0.47,0.34,-23.48
2210,-89.94,73.12,260.75,0.88,0.41,-22.3
2220,-56.5,97.06,258.94,1.75,-0.58,-21.16
2230,-28.62,113,257.75,2.33,-1.19,-20.98
2240,-19.69,124.06,255.25,2.85,-1.77,-20.68
2250,-26.25,130.44,251,3.43,-2.34,-20.18
2260,-39.06,130.44,243.81,4.51,-3.39,-19.03
2270,-47.94,126.31,231.81,4.91,-3.72,-18.82
2280,-52.13,123.19,217.31,5.33,-3.98,-18.77
2290,-55.88,122.87,203.37,6.19,-4.77,-18.63
2300,-60.25,124.37,189.62,6.68,-5,-18.4
2310,-60.63,129.94,173.62,7,-5.1,-17.85
2320,-51.81,136.87,157.81,7.36,-5.22,-17.26
2330,-35.31,145.31,141.94,7.94,-5.7,-16.25
2340,-13.44,157.37,122.37,8.33,-5.77,-15.5
2350,11.38,169,100.56,8.71,-5.67,-14.55
2360,37.38,173.25,79.19,8.9,-5.39,-13.17
2370,59.94,171,60.81,9.04,-5.39,-12.8
2380,72.12,163.75,46.31,9.25,-5.41,-12.51
2390,72.44,150.31,34.44,9.48,-5.59,-12.32
2400,64.19,132.19,23.25,9.55,-5.88,-12.35
2410,50.88,114.62,11.63,9.69,-6.1,-12.48
2420,36.19,100.44,-1.31,9.88,-6.28,-12.63
2430,22.25,92.19,-16.69,9.91,-6.21,-12.7
2440,12.13,91.44,-33.5,9.85,-5.8,-12.25
2450,11.5,93.62,-46.38,9.55,-5.48,-11.89
2460,16.56,96.31,-53.69,9.2,-5.37,-11.52
2470,18.75,97.06,-59.25,10.12,-5.49,-10.85
2480,26.12,97.19,-69.31,9.76,-5.48,-10.4
2490,39.75,97.56,-81.19,9.96,-5.45,-10.28
2500,48.25,97.56,-93.06,9.94,-5.47,-9.52
2510,54.38,96.94,-108.31,10.04,-5.34,-8.69
2520,65.56,91.94,-129.37,10.17,-4.98,-8.02
2530,76.31,79.31,-150.5,9.74,-3.88,-7.64
2540,77.19,60.31,-169.06,9.61,-3.17,-7.53
2550,67.56,37.31,-185.87,9.23,-2.31,-7.32
2560,57.81,14.69,-200.31,8.98,-1.26,-7.13
2570,53.06,-5.69,-208,8.26,0.64,-7.41
2580,49.5,-23.19,-208.44,8.14,1.35,-7.62
2590,44.75,-39.06,-204.69,8.1,1.77,-8.1
2600,31.56,-54.56,-204.56,7.8,2.85,-9.04
2610,8.81,-71.12,-205.19,7.52,3.46,-9.23
2620,-8.19,-83.5,-203.87,7.38,3.98,-9.44
2630,-8.69,-88.44,-205.56,7.28,4.51,-9.73
2640,4,-86.19,-211.12,6.77,5.75,-10.57
2650,21.37,-77.69,-219.81,6.37,6.85,-10.74
2660,38.38,-69.44,-229,6.01,8.16,-10.84
2670,53.13,-66.37,-234.44,4.99,11.13,-11
2680,63.94,-67.12,-232.37,4.39,12.6,-11.28
2690,67.19,-69.5,-221.25,3.8,14.03,-11.65
2700,60.5,-73.12,-202,2.88,16.54,-12.3
2710,46,-75.31,-175.37,2.39,17.51,-12.39
2720,31.75,-74.5,-142.75,1.97,18.31,-12.42
2730,22.12,-71.75,-104.19,1.74,18.73,-12.39
2740,15.38,-68.75,-60.88,2.04,18.01,-12.4
2750,9.38,-66.94,-19.62,2.39,16.92,-12.52
2760,3.06,-66.87,8.88,2.54,15.94,-12.5
2770,-0.69,-66.87,26.12,2.58,14.63,-11.65
2780,3.12,-68.94,39.38,2.5,14.02,-11.47
2790,10.44,-74.87,51.06,2.48,13.39,-11.52
2800,16.06,-83.37,60.94,2.34,12.81,-11.67
2810,21.06,-91.69,70.62,2.28,11.9,-12.03
2820,25.25,-101.87,83.81,2.32,10.91,-12.63
2830,23.31,-111,98.12,2.5,9.96,-13.07
2840,16.37,-118.06,108.56,2.94,7.83,-13.49
2850,10.94,-126,115.25,2.93,6.63,-13.72
2860,9.75,-135,114.69,3.03,5.55,-14
2870,13.06,-144.94,106.12,3.17,4.68,-14.38
2880,17.87,-154.62,91.75,3.39,3.53,-15.61
2890,17.75,-160.5,74.5,3.35,3.23,-16.17
2900,11.5,-164,57.06,3.35,3.26,-16.39
2910,10,-167.12,42.69,3.09,3.74,-17.09
2920,16.62,-167.19,35.19,2.95,3.87,-17.66
2930,25.81,-162.69,33.38,2.45,3.96,-18.32
2940,29.87,-151.69,35.75,1.63,3.79,-19.38
2950,23.37,-137.25,42.88,1.46,3.19,-19.54
2960,4.06,-126.19,48.06,1.53,2.48,-19.27
2970,-19.44,-120.56,43.44,1.72,1.95,-18.6
2980,-33.13,-123.87,29.62,1.88,1.51,-17.17
2990,-25.56,-131.81,13.25,1.7,1.29,-17.21
3000,-3.75,-138.94,-3.5,1.58,1.06,-17.55
3010,19.69,-142.44,-21.87,1.23,1.1,-18.6
3020,34.63,-143.69,-39.13,0.83,1.33,-19.03
3030,39.06,-141.94,-53.25,0.26,1.67,-19.26
3040,39.06,-141.94,-53.25,-0.29,2.02,-19.26
3050,38.69,-130.87,-65,-0.67,2.48,-19.42
3060,37.19,-127.12,-62.5,-0.67,2.39,-19.49
3070,37.25,-120.94,-59.38,-0.7,2.15,-19.44
3080,40.56,-112.12,-59.31,-0.87,1.53,-18.9
3090,50.25,-100.12,-63.88,-1.09,1.22,-18.4
3100,67.62,-87.19,-70.56,-1.26,0.88,-17.9
3110,85.06,-80.37,-76.62,-1.48,0.53,-17.82
3120,93.06,-82.56,-82.06,-1.54,0.07,-18.07
3130,87,-93.5,-87.06,-1.99,-0.24,-18.68
3140,63.75,-108.06,-94.44,-2.21,-0.18,-18.81
3150,42.31,-120,-101.06,-2.76,0.12,-18.8
3160,37,-129.31,-102.69,-3.13,0.01,-19.4
3170,43.31,-134.31,-104.19,-3.41,-0.27,-20.27
3180,47.56,-128.62,-106.25,-3.64,-0.59,-22.12
3190,47.56,-128.62,-106.25,-3.86,-0.68,-22.74
3200,39.75,-115.44,-109.31,-4.3,-0.77,-23.24
3210,-11.13,-81.75,-117.56,-4.6,-0.67,-23.28
3220,-33.63,-60.25,-125.44,-5.83,0.06,-22.6
3230,-38.25,-39.69,-134.25,-6.59,0.58,-22.28
3240,-38.25,-39.69,-134.25,-6.9,0.98,-21.9
3250,-23.37,-15.44,-140.87,-7.42,1.42,-22.33
3260,27.06,31.19,-139.5,-7.63,1.54,-22.91
3270,26.94,49.56,-132.25,-7.71,1.56,-23.1
3280,9.44,67.94,-119.94,-7.53,1.35,-22.68
3290,9.44,67.94,-119.94,-7.38,1.55,-20.65
3300,-8.56,84.25,-110.5,-7.51,1.87,-20.18
3310,-13.25,107.56,-92.06,-7.25,1.92,-20.11
3320,-24.37,111.62,-82.06,-7.49,2.64,-19.89
3330,-46.06,111.37,-75.12,-7.76,3.5,-19.75
3340,-46.06,111.37,-75.12,-8.04,4.3,-19.55
3350,-66,110.56,-62.75,-8.18,4.84,-19.59
3360,-70.25,126.69,-14,-7.36,4.13,-19.34
3370,-63.88,144.25,8.13,-6.87,3.6,-19.13
3380,-61.81,161.06,21.56,-5.9,3.06,-18.59
3390,-61.81,161.06,21.56,-5.9,3.06,-18.59
3400,-61.44,172.37,24.87,-5.13,2.44,-17.03
3410,-53.5,170,13,-4.12,2.26,-16.18
3420,-44.63,162.25,0.13,-3.75,2.48,-15.17
3430,-26.87,159.12,-16.69,-3.52,2.97,-14.57
3440,-26.87,159.12,-16.69,-3.52,2.97,-14.57
3450,2.75,160.19,-35.31,-3.46,3.53,-14.21
3460,39.94,151.81,-55.38,-2.88,5,-13.44
3470,31.06,135.87,-60.5,-2.87,5.62,-12.92
3480,14.31,110.06,-60.63,-2.7,6.2,-12.41
3490,14.31,110.06,-60.63,-2.7,6.2,-12.41
3500,0.94,74.12,-56.44,-2.58,7.12,-12.86
3510,-5,11.06,-49.44,-2.57,8.53,-15.35
3520,-6.69,2,-48.5,-2.86,9.68,-16.44
3530,-12.06,5.12,-40.25,-4.11,12.11,-17.4
3540,-12.06,5.12,-40.25,-4.11,12.11,-17.4
3550,-18.19,17.5,-16,-4.19,12.8,-17.17
3560,-17.25,30.69,19.62,-3.73,12.07,-17.07
3570,-13.63,37.94,60.31,-3.07,11.18,-17.66
3580,-16.62,36.13,98.87,-2.76,10.52,-18.35
3590,-32.44,25.56,127.25,-2.76,10.52,-18.35
3600,-56.5,13.56,148.44,-2.56,10.07,-18.92
3610,-73.19,7.5,166.94,-2.06,8.54,-20.18
3620,-73.25,10.31,185.94,-1.65,7.67,-20.96
3630,-66.87,21.94,205.5,-0.91,6.03,-20.61
3640,-66.81,40.88,219.5,-0.91,6.03,-20.61
3650,-69.25,60.06,227.62,-0.47,5.52,-19.7
3660,-66.19,71.37,232.31,0.54,4.08,-19.22
3670,-63.25,73.25,233.75,0.8,3.88,-19.16
3680,-70.12,71.5,233.44,0.88,3.7,-19.16
3690,-83.06,66,233.25,0.88,3.7,-19.16
3700,-94.75,59.81,237.06,1.06,3.45,-19.24
3710,-104.25,54.75,244.5,2.13,1.75,-19.82
3720,-114.31,55,252.12,2.77,1.36,-19.24
3730,-121.87,62.88,255.31,3.61,0.49,-18.31
3740,-119.5,72.69,254.37,3.61,0.49,-18.31
3750,-107.44,82.81,250.81,4.08,0.14,-18.12
3760,-96.06,92.19,246.25,4.96,-0.58,-16.97
3770,-87.5,104.81,240.56,5.48,-1.16,-15.05
3780,-75.44,117.44,233.5,5.71,-1.53,-14.38
3790,-56.38,127.19,228.37,5.71,-1.53,-14.38
3800,-35,135.37,227.62,6.04,-2.07,-13.85
3810,-19,139,230.06,7.66,-4.97,-12.63
3820,-11.88,136.31,230.44,8.38,-6.02,-12.39
3830,-11,125.56,226.12,9.13,-7.07,-12.25
3840,-12.13,109.5,214.87,9.13,-7.07,-12.25
3850,-16.5,89.31,191.87,10.37,-8.63,-12.7
3860,-26.25,66.94,153.81,9.93,-8.22,-13.16
3870,-38.81,45.06,117.19,10.57,-7.66,-13.05
3880,-49.19,30.56,80.56,10.91,-7.09,-13.16
3890,-54.56,19.12,36.88,10.91,-7.09,-13.16
3900,-50.44,6.31,0,10.41,-6.46,-13.49
3910,-27.37,4.25,-31,8.91,-4.72,-14.35
3920,14.88,12.19,-50,8,-4.99,-15.69
3930,66.12,26.69,-58.81,10.1,-5.05,-15.4
3940,99.25,55.56,-72.25,10.1,-5.05,-15.4
3950,100.5,68.87,-86.87,8.97,-4.94,-15.17
3960,89.5,87.19,-103.81,9.36,-4.62,-12.99
3970,76.37,99,-116.31,9,-4.56,-11.18
3980,63.19,96.25,-127.5,9.35,-4.15,-10
3990,50.69,91.56,-144.44,9.35,-4.15,-10
4000,47.44,78.69,-161.44,9.05,-3.82,-9.47
4010,53.56,66.19,-177.19,8.43,-1.78,-7.31
4020,64.75,56.19,-198.94,7.77,-0.78,-6.84
4030,83.19,41.06,-220.5,7.16,0.1,-6.9
4040,105.31,17.31,-234.31,7.16,0.1,-6.9
4050,119.94,-16.75,-238.19,6.55,1.29,-8.46
4060,121.31,-50.31,-233.94,6.7,1.64,-10.54
4070,104.81,-75.69,-227.06,6.7,1.64,-10.54
4080,74.12,-93.56,-226.06,6.72,1.98,-11.36
4090,41.25,-100.06,-237.06,5.96,3.7,-11.4
4100,21.37,-97,-254.19,5.1,4.98,-11.12
4110,18.31,-95.75,-266.31,4.41,6.3,-10.9
4120,28.44,-98.81,-268.5,3.32,8.66,-11.31
4130,47.06,-99.62,-261.37,2.8,9.73,-11.56
4140,67.37,-97.75,-246.5,2.31,10.58,-11.9
4150,83.56,-99.31,-225.31,1.79,11.87,-13.35
4160,87.69,-103.5,-202.5,1.43,12.48,-14.17
4170,77.06,-106.37,-183.06,0.99,13.22,-14.85
4180,55.81,-105.44,-163.56,0.52,14.08,-15.29
4190,32.19,-99.56,-137.75,0.01,15.34,-15.25
4200,14.38,-88.87,-104.31,-0.16,15.57,-14.93
4210,7.81,-77.31,-64.87,-0.18,15.43,-14.62
4220,11.94,-67.37,-25.56,0.05,14.3,-14.58
4230,20.12,-57,5.62,0.1,13.67,-14.48
4240,23.81,-51.31,30.5,0.35,12.92,-14.29
4250,23.37,-52.44,50.19,0.55,12.04,-14.08
4260,24.31,-58.56,62.31,0.85,10.73,-14.03
4270,30.62,-65.06,68.56,1.02,10.3,-14.3
4280,39.94,-73.56,73.25,0.91,10,-14.91
4290,45.06,-81.19,76.62,0.75,9.9,-16
4300,45.13,-84.75,85.06,0.5,9.36,-16.51
4310,39.31,-84.37,97.75,0.44,8.77,-16.69
4320,27.69,-82.31,110.56,0.43,8.13,-16.51
4330,19.12,-81.81,120.94,0.57,6.96,-15.68
4340,21.06,-83,129.62,0.69,6.24,-15.58
4350,30,-87.69,135.62,0.9,5.44,-15.77
4360,37.06,-95.81,137.94,1.51,4.2,-16.61
4370,40.19,-106.94,133.5,1.42,4.03,-17.32
4380,43.81,-115.06,123.19,0.99,4.21,-18.05
4390,48.88,-110.94,116.44,0.44,4.4,-18.76
4400,54.56,-97.94,118.5,0.24,4.11,-18.99
4410,53,-83.19,126.75,0.16,3.59,-19.09
4420,36.44,-74.75,136.81,0.14,3.09,-18.95
4430,8.75,-75.94,148.44,0.61,1.62,-18.34
4440,-20.37,-85.06,161.75,0.9,0.59,-18.27
4450,-46.06,-98.31,169.75,1.07,-0.35,-18.29
4460,-64.44,-109.94,169.44,1.79,-2.15,-18.5
4470,-73.5,-117.87,161.69,1.97,-2.85,-18.52
4480,-73,-120,144.62,2.13,-3.41,-18.58
4490,-64.12,-119.81,117.69,2.18,-3.81,-18.8
4500,-51.75,-116.37,82,2.2,-3.86,-19.2
4510,-38.13,-106.31,40.63,1.77,-3.23,-18.79
4520,-21.25,-91.62,0.94,1.33,-2.3,-18.07
4530,2.87,-82.12,-27.69,0.56,-0.92,-17.4
4540,28.37,-80.56,-46.81,0.16,-0.43,-17.51
4550,45.75,-83.44,-59,-0.26,-0.2,-17.72
4560,50.81,-90.31,-65.56,-0.6,-0.13,-18.05
4570,44.06,-100.31,-69.69,-1.2,-0.24,-19
4580,30.19,-108.12,-73.62,-1.47,-0.34,-19.33
4590,13.31,-110.81,-77.75,-1.47,-0.46,-19.48
4600,-0.94,-111.12,-82.75,-1.72,-0.58,-19.71
4610,-8.25,-110.06,-89.75,-1.92,-0.62,-19.96
4620,-10.19,-106.19,-98.81,-2.04,-0.57,-20.2
4630,-9.5,-99.44,-112.19,-2.72,0.37,-20.49
4640,-3.94,-89.31,-125.62,-3.04,0.93,-20.5
4650,8,-75.31,-135.06,-3.39,1.45,-20.61
4660,23.37,-59.5,-138.75,-3.95,1.92,-20.9
4670,34.19,-42.13,-132.56,-4.08,2.17,-21.39
4680,34.19,-27.25,-117.81,-3.89,1.61,-21.61
4690,19.5,-17.5,-102.87,-3.79,1.05,-21.75
4700,-7.56,-10.94,-97.62,-4.06,0.81,-20.55
4710,-32.06,-6.62,-100.56,-4.33,0.95,-19.99
4720,-37.44,-5.37,-105.5,-4.69,1.15,-19.96
4730,-25.75,-2.25,-109.87,-4.92,1.24,-20.43
4740,-12.25,5.25,-111.31,-5.14,1.15,-21.62
4750,-8.81,17.31,-111.25,-5.26,1.05,-21.68
4760,-11.31,34.69,-112.81,-5.4,1.12,-21.34
4770,-9.88,52.44,-116.06,-5.51,1.49,-20.62
4780,-1,68.75,-120.44,-6.11,1.68,-20.34
4790,11.5,85.75,-121.75,-5.96,1.8,-19.96
4800,18.75,98,-120.75,-6.19,1.92,-19.74
4810,12.88,101.06,-120.19,-6.08,2.11,-19.64
4820,-5.75,98.94,-119.06,-5.98,2.32,-19.53
4830,-27.87,95.44,-117.5,-5.97,2.7,-19.39
4840,-44.19,93.06,-119.19,-6.24,4.02,-19
4850,-46.75,94.44,-120.62,-6.5,4.92,-18.85
4860,-31.37,103.31,-118.25,-6.55,5.72,-18.73
4870,-3.5,120.19,-104.69,-6.07,6.03,-18.48
4880,21.94,138.25,-82.31,-5.53,5.51,-18.34
4890,31.62,149.81,-60.75,-5.05,5,-18.04
4900,24.44,151.75,-47.44,-4.4,4.65,-17.6
4910,11.25,145.87,-40.44,-3.74,4.29,-16.61
4920,1.94,137.37,-39.25,-3.44,4.43,-16.26
4930,0.62,128.06,-42,-3.32,4.79,-16.16
4940,3.87,121.69,-43.69,-3.18,5.66,-16.3
4950,3.5,119.06,-42,-3.03,6.12,-16.26
4960,-6.19,112,-36.63,-2.96,6.5,-16.09
4970,-20.19,101.56,-25.87,-2.68,6.77,-15.86
4980,-30.94,88.31,-11,-2.06,6.83,-16.05
4990,-34,72.31,2,-1.84,6.98,-16.81
5000,-29.44,64.5,11.38,-1.68,7.15,-17.35
5010,-17.94,69.62,21.12,-1.24,7.09,-17.88
5020,-1.87,80.69,32.81,-0.98,6.83,-18.1
5030,8.69,92.06,44.44,-0.67,6.51,-17.98
5040,7.44,100.25,54.81,-0.13,5.84,-17.16
5050,-2.87,101.81,64.19,0.17,5.55,-16.68
5060,-18.56,97.06,71.37,0.58,5.45,-16.11
5070,-35.06,87.44,75.12,0.74,5.56,-15.58
5080,-45.56,75.19,77.37,1.16,6.15,-14.79
5090,-48.38,61.75,78.94,1.28,6.6,-14.73
5100,-44.56,47.06,83.56,1.37,6.88,-15.4
5110,-47.25,33.44,93.31,1.52,7.02,-16.61
5120,-64,24.75,104.62,1.35,7.14,-16.51
5130,-81.87,21.12,116.75,1.46,7.18,-16.04
5140,-86.69,18.94,130.31,1.72,7.1,-15.78
5150,-79.69,15,142.62,2.26,6.54,-16.83
5160,-74.37,11.06,154,2.47,6.25,-17.47
5170,-78.69,10.56,163.94,2.48,6.04,-17.82
5180,-87.06,12.81,174.5,2.69,5.41,-17.7
5190,-91.25,18.5,184.44,2.75,5.13,-17.51
5200,-85.69,26,193.12,2.98,4.81,-17.43
5210,-73.31,35,202.94,3.19,4.24,-17.44
5220,-63.5,41.25,214.37,3.96,2.52,-17.69
5230,-65.37,41,224.25,4.33,1.73,-17.68
5240,-76.44,33.81,229.75,4.76,1.01,-17.92
5250,-91.25,23.25,229.56,5.29,-0.05,-18.54
5260,-103.75,16.44,225.06,5.44,-0.32,-18.69
5270,-107.94,18.12,218.44,5.68,-0.55,-18.79
5280,-101.12,27.69,211.62,6.26,-1.18,-18.6
5290,-84.75,43.25,206.12,6.43,-1.54,-18.3
5300,-63.25,64.94,199.5,6.61,-1.86,-17.51
5310,-36.94,90.75,190.81,6.71,-2.15,-16.43
5320,-3.69,114.87,182.25,7.37,-2.9,-14.48
5330,32.75,130.5,176.44,7.93,-3.66,-14.34
5340,58.75,135.12,172.5,8.64,-4.61,-14.52
5350,56.31,132.06,166,9.35,-6.33,-14.58
5360,26.94,123.06,154.62,9.52,-7.11,-14.27
5370,-12.31,108.44,136.62,9.97,-7.41,-13.65
5380,-43.19,91.31,109.25,10.78,-7.41,-12.95
5390,-53.5,71.31,78.56,10.15,-7.07,-12.84
5400,-49.06,56.75,50.81,10.86,-6.59,-12.58
5410,-35.88,43.94,26.06,10.21,-6.27,-12.72
5420,-14.88,34.06,0.37,9.76,-5.55,-13.77
5430,4.62,28.87,-15.38,9.73,-5.53,-14.85
5440,10.63,29.44,-26.06,9.37,-5.51,-15.25
5450,-3.06,30.56,-36.06,8.88,-5.86,-15.62
5460,-22.37,38.88,-48.63,9.42,-5.54,-14.72
5470,-29.44,52.56,-59.63,9.37,-5.29,-13.9
5480,-26.06,64.62,-71.31,9.11,-5.26,-13.05
5490,-12.25,72.81,-85.31,9.54,-5.28,-11.8
5500,9.94,75.69,-104.06,9.23,-5.2,-11.58
5510,30.94,71.69,-124.81,9.29,-4.99,-11.39
5520,47.06,67.75,-144.69,9.11,-4.72,-11.31
5530,56.94,67.75,-165.69,8.69,-3.59,-9.91
5540,67.75,72.81,-189.75,8.25,-2.59,-8.83
5550,84.19,70.69,-212.06,7.87,-1.68,-7.95
5560,102.56,54.44,-228.5,6.89,0.12,-7.48
5570,117.06,28.31,-235.56,6.6,0.79,-7.72
5580,119.37,-0.5,-233.06,6.46,1.3,-8.01
5590,108.12,-28.12,-227.62,6.15,2.22,-8.87
5600,87.56,-55.13,-223.25,6.02,2.76,-9.52
5610,62.13,-76.75,-220.62,5.97,3.32,-9.99
5620,37.25,-87.94,-221.81,5.68,4.04,-10.12
5630,20.75,-92.5,-226.94,4.96,5.86,-9.84
5640,16.19,-96.75,-235.06,4.22,7.22,-9.68
5650,27.44,-104.56,-244.62,3.25,8.67,-9.84
5660,53,-114.5,-248,1.93,11.31,-11.25
5670,82.81,-125.25,-239.87,1.42,12.23,-12.57
5680,101.87,-133.37,-222.87,0.98,13.09,-13.9
5690,102.06,-134.56,-202.31,0.54,13.93,-15
5700,102.06,-134.56,-202.31,0.04,15.15,-16.17
5710,85.31,-126.94,-175.12,-0.25,15.49,-16.05
5720,32.56,-94.56,-101.94,-0.45,15.66,-15.53
5730,17.62,-75.94,-63.13,-0.51,15.24,-14.22
5740,14.69,-63.06,-22.56,-0.4,14.46,-13.67
5750,14.69,-63.06,-22.56,-0.01,13.42,-13.43
5760,23.06,-56.88,46.38,0.32,12.18,-13.19
5770,24.75,-58.56,67.44,0.98,9.97,-12.64
5780,23.69,-71,79.62,1.25,8.96,-12.7
5790,19.5,-90.06,84.31,1.23,8.11,-12.97
5800,19.5,-90.06,84.31,1.41,7.16,-14.02
5810,14.81,-111.75,82.12,1.07,6.78,-14.34
5820,13.63,-141.87,69.69,0.63,6.81,-14.79
5830,23.06,-152.19,59.44,0.06,7.51,-16.4
5840,37.56,-155.75,52.06,-0.32,7.98,-17.01
5850,37.56,-155.75,52.06,-0.84,8.48,-17.4
5860,51.44,-149.19,49,-1.29,8.8,-17.65
5870,71.62,-133,63.19,-1.88,8.65,-18.64
5880,71.75,-127,79.19,-2.23,8.25,-18.85
5890,61.56,-120.75,97.12,-2.41,7.66,-18.85
5900,61.56,-120.75,97.12,-2.33,6.12,-18.89
5910,42.81,-119.94,115.87,-2.26,5.32,-19
5920,-0.06,-134.94,151.12,-2.03,4.41,-19.17
5930,-13.31,-142.62,166.19,-1.93,3.39,-19.44
5940,-19.87,-144.56,178.56,-1.18,1.01,-19.86
5950,-19.87,-144.56,178.56,-1.18,1.01,-19.86
5960,-24.06,-142.06,185.06,-0.9,-1.01,-19.99
5970,-33,-132.44,170.69,-0.31,-2.4,-19.87
5980,-35.81,-131.37,149.37,-0.18,-2.64,-19.82
5990,-33.69,-129.87,120.19,-0.28,-2.67,-19.85
6000,-33.69,-129.87,120.19,-0.28,-2.67,-19.85
6010,-28,-126.69,87.94,-0.41,-2.32,-19.79
6020,-6.25,-107.75,36.81,-0.87,-2.17,-19.4
6030,2.56,-100.81,22.81,-1.04,-2.33,-19.21
6040,6.37,-98.56,12.25,-1.15,-3.03,-19.25
6050,6.37,-98.56,12.25,-1.15,-3.03,-19.25
6060,4.69,-103.75,0.81,-1.06,-3.32,-19.46
6070,-12.06,-122.12,-40.44,-1.77,-2.97,-20.42
6080,-18.19,-123.87,-64.37,-2.13,-2.62,-20.55
6090,-21.12,-116.25,-87.62,-2.44,-2.31,-20.5
6100,-21.12,-116.25,-87.62,-2.44,-2.31,-20.5
6110,-18.56,-103.69,-106.69,-2.74,-2.13,-20.45
6120,3,-72.62,-136.75,-4.03,-1.59,-20.47
6130,16.19,-51.44,-150.81,-4.21,-1.36,-19.84
6140,33.19,-37.38,-162.62,-5.1,-1.11,-20.13
6150,33.19,-37.38,-162.62,-5.1,-1.11,-20.13
6160,46.38,-36.38,-171.06,-5.5,-0.93,-20.99
6170,38.56,-43.38,-180.31,-6.39,-0.08,-22.12
6180,6.87,-51.5,-188.06,-7.58,1.13,-22.22
6190,-30.94,-54.25,-191.75,-7.96,1.65,-22.13
6200,-56.56,-46.69,-191.75,-7.96,1.65,-22.13
6210,-60.69,-27.12,-187.69,-8.26,2.02,-22.28
6220,-49.81,-0.13,-178.69,-9,2.15,-22.52
6230,-35.44,31.75,-167.62,-9.08,1.88,-21.97
6240,-23.75,65.62,-155.5,-9.24,1.73,-20.73
6250,-14.31,94.87,-147.62,-9.24,1.73,-20.73
6260,-4.31,115.5,-147.06,-9.34,1.9,-20.41
6270,6.62,130,-154.75,-9.84,2.93,-20.47
6280,16.62,138.62,-166.94,-10.49,4.42,-21.02
6290,20.06,141.5,-175.44,-10.71,5.21,-21.19
6300,13.63,142.81,-177.12,-10.71,5.21,-21.19
6310,1.12,145.69,-173.19,-10.54,6.05,-21.11
6320,-6.75,156.69,-158.37,-9.78,7.02,-19.74
6330,-7.37,173.75,-134.69,-9.32,7.03,-19.19
6340,-3.94,193.94,-109.81,-8.69,7.13,-18.47
6350,-5.12,209.94,-84.94,-8.69,7.13,-18.47
6360,-15.13,218.56,-57.44,-7.67,6.2,-15.93
6370,-21.31,220.06,-29.25,-5.82,4.82,-14.98
6380,-19.81,209,-5.5,-4.28,3.31,-14.48
6390,-17,195.62,12.88,-3.31,2.56,-14.12
6400,-19.12,187.12,25.87,-3.31,2.56,-14.12
6410,-27.62,178.87,32.88,-2.6,2.02,-13.69
6420,-39.94,168.81,32.81,-0.86,1.14,-11.77
6430,-50.56,157.37,28.44,-0.51,1.31,-10.93
6440,-53.38,145.5,18.25,-0.4,2.09,-10.18
6450,-43.63,134.25,-2.44,-0.4,2.09,-10.18
6460,13.44,93.94,-54.75,-0.81,4.58,-10.29
6470,13.44,93.94,-54.75,-1.32,7.5,-12.38
6480,36.5,69,-71.19,-2.17,10.01,-13.08
6490,36.63,48.38,-76,-2.67,11.05,-12.94
6500,19.75,30.87,-70.25,-2.67,11.05,-12.94
6510,10.31,-2.31,-36.69,-3.12,11.99,-13.24
6520,10.31,-2.31,-36.69,-3.43,12.86,-16.39
6530,20.69,-15.25,-4.94,-3.32,12.35,-17.47
6540,22.69,-24.06,35.19,-3.18,11.66,-18.11
6550,-18.69,-28.25,116.06,-3.18,11.66,-18.11
6560,-37.5,-26.19,146.44,-2.93,10.41,-18.44
6570,-37.5,-26.19,146.44,-2.45,8.58,-19.36
6580,-39.56,-20.69,196.19,-2.08,7.6,-19.95
6590,-37.5,-8.81,212.25,-1.5,6.19,-19.72
6600,-37,5.87,224.12,-1.5,6.19,-19.72
6610,-34.81,15.25,234.75,-1.29,5.52,-19.49
6620,-36.63,18.25,245.62,-0.38,3.32,-19.91
6630,-48.56,18,257.62,-0.14,2.42,-19.86
6640,-68.44,13.38,270.75,0.29,1.55,-19.89
6650,-90.62,3.75,281.69,0.29,1.55,-19.89
6660,-111.94,-9.75,286.81,0.64,0.74,-19.99
6670,-128.44,-23.81,284.12,1.56,-0.95,-20.86
6680,-134.75,-32.25,275.94,2.19,-1.03,-21.11
6690,-124.25,-27.44,264.69,2.19,-1.03,-21.11
6700,-99.87,-10.31,255.12,3.04,-1.5,-21.57
6710,-74.69,13.63,246.81,3.22,-1.83,-22.01
6720,-61.69,39.94,237.87,3.32,-2.17,-22.18
6730,-61.56,64,232.5,3.22,-2.44,-21.88
6740,-65.06,81.44,232.56,3.71,-3.37,-19.91
6750,-64.56,91,231.75,4.35,-4.02,-19.01
6760,-62,96.25,226.75,5.09,-4.66,-18.4
6770,-55.56,100.19,216,6.27,-6.11,-16.83
6780,-42.31,96.31,196.06,7.05,-6.59,-16.35
6790,-26.19,85.81,166.31,7.58,-6.94,-16.43
6800,-15.38,79.44,131.31,8.11,-6.86,-17.37
6810,-9.25,87.31,101,7.98,-6.57,-17.4
6820,-4.12,104.37,80.44,8,-6.48,-17.03
6830,-0.56,119.87,65.25,8.01,-6.41,-16.42
6840,1.56,126.37,53.19,7.96,-6.35,-15.06
6850,1.62,120.5,40.81,8.12,-6.38,-14.52
6860,0.31,106.12,28.06,8.23,-6.5,-14.18
6870,-3.06,88.37,14.06,8.52,-7.07,-14.39
6880,-11.13,70.31,-3.44,8.58,-7.27,-14.95
6890,-22.87,57.81,-24.75,8.58,-7.21,-15.55
6900,-32,54.44,-46.19,8.55,-6.87,-16.03
6910,-28.81,63.19,-64.87,7.83,-5.76,-16.07
6920,-12.44,80.19,-78.44,8.08,-5.29,-15.92
6930,5.94,97.25,-87.56,7.15,-4.94,-15.64
6940,21.25,109.87,-96.81,7.39,-4.91,-14.45
6950,27.87,117.87,-109.19,7.68,-4.84,-14.05
6960,25.37,127.06,-124,7.6,-4.52,-13.21
6970,27.37,132.81,-138.06,7.52,-4.18,-11.77
6980,40.69,129.75,-154.81,7.28,-3.28,-9.53
6990,58.88,118.62,-174,6.89,-2.6,-8.66
7000,73.12,98.44,-193.56,6.8,-1.63,-8.22
7010,77.44,71,-206.31,5.58,0.92,-7.95
7020,76.62,40.56,-208.69,5.07,2.25,-8.07
7030,79.56,17.87,-197.94,4.77,3.24,-8.32
7040,86.5,6.12,-181,4.73,3.96,-9.15
7050,87.56,0.62,-168.69,4.9,3.98,-9.43
7060,79.62,-4.37,-163.87,4.81,4.12,-9.41
7070,68.75,-12.69,-163.5,4.59,4.35,-9.1
7080,62.69,-23.31,-163.19,4.25,4.93,-8.48
7090,61.63,-37.13,-163.87,3.99,5.17,-8.38
7100,64.06,-51.44,-166.5,3.88,5.55,-8.47
7110,67.75,-63.56,-170.37,3.7,6.43,-8.65
7120,72.25,-77.44,-175.19,3.69,6.78,-8.65
7130,77.69,-97,-185.62,3.06,7.5,-9.05
7140,86.94,-118.81,-195,2.44,8.49,-9.29
7150,108.56,-139.75,-198.69,1.06,10.77,-10.81
7160,136.81,-148.94,-193.5,0.29,11.8,-12
7170,163.06,-147.37,-176.5,-0.35,12.61,-12.94
7180,178.56,-142.44,-152.87,-0.98,13.69,-14.91
7190,180.69,-134.5,-127.19,-1.29,14.06,-15.33
7200,172.94,-132.12,-98.44,-1.79,14.43,-15.78
7210,154.25,-135.94,-65.31,-2.02,14.93,-17.1
7220,123.5,-144.12,-29.37,-2.84,14.61,-17.41
7230,95.31,-154.56,5.19,-3.08,14.24,-17.67
7240,78.44,-162.94,37.19,-3.55,13.61,-18.27
7250,71.94,-169.31,65.37,-4.04,12.23,-19.74
7260,66.69,-175.94,90.06,-4.28,11.26,-20.76
7270,62,-175.56,110.19,-4.49,10.38,-21.78
7280,59.81,-164.19,128.81,-4.19,8.87,-23.67
7290,56.63,-140.75,146.94,-4.21,8.13,-24.26
7300,47.81,-112.12,165.44,-4.21,7.35,-24.53
7310,34.75,-79.75,185.5,-4.1,6.56,-24.27
7320,25.87,-48.75,206.5,-3.46,4.32,-22.09
7330,20.19,-27.06,226.87,-3.04,2.89,-20.98
7340,10.75,-15.81,242.75,-2.71,1.37,-19.8
7350,-1.5,-16.87,252.75,-1.48,-1.59,-17.7
7360,-10.88,-26.25,255.56,-0.89,-3.03,-16.91
7370,-14.81,-38.88,249.19,-0.36,-4.32,-16.34
7380,-15.81,-54.88,234.5,-0.07,-5.47,-15.87
7390,-13.38,-76.37,211.31,0.68,-7.22,-15.48
7400,-11.5,-101.06,180.75,0.94,-7.68,-15.97
7410,-19.37,-125.62,146.06,0.98,-7.84,-16.87
7420,-37.69,-143.37,114.31,1.02,-7.52,-18.52
7430,-55.25,-149.81,88.31,0.63,-7.03,-19.07
7440,-63.56,-143.94,70.69,0.38,-6.69,-19.32
7450,-60,-129.31,57.06,0.72,-6.68,-19.96
7460,-55.69,-113.19,40.25,0.5,-6.84,-19.8
7470,-45.94,-98.25,14.13,0.53,-6.38,-19.22
7480,-17.87,-85.56,-10.44,0.48,-5.88,-18.63
7490,18,-76.87,-32.25,0.47,-4.8,-18.8
7500,43.75,-70.06,-49.31,0.22,-4.2,-18.95
7510,53.5,-68.81,-60.56,-0.15,-3.7,-19.2
7520,49.56,-72.31,-66.44,-0.81,-2.89,-19.71
7530,38,-80.69,-67.12,-1.05,-2.85,-20.22
7540,24.44,-87.69,-67.44,-1.27,-2.79,-20.67
7550,15.13,-89.44,-67.56,-1.44,-2.82,-21.17
7560,11.5,-82.25,-68.19,-1.54,-2.99,-22.21
7570,13.06,-66.12,-69.25,-1.52,-3.43,-22.56
7580,16.37,-45.5,-73.31,-1.52,-3.94,-22.89
7590,17.94,-21.12,-83.25,-1.73,-4.66,-22.76
7600,21.06,4.81,-96.25,-1.93,-4.91,-22.12
7610,29.12,26.19,-110.44,-2.08,-5.04,-21.33
7620,39.13,42.06,-124.12,-2.33,-5.17,-20.61
7630,45.44,51.06,-137.94,-3.04,-4.99,-19.35
7640,45.56,53.13,-149.87,-3.28,-4.87,-18.86
7650,43.19,46.88,-160.19,-3.57,-4.77,-18.59
7660,45,39.25,-170.5,-4.46,-4.14,-18.65
7670,56.63,35.06,-179.69,-4.77,-3.98,-19.37
7680,68.56,34.19,-187.81,-5.04,-3.94,-20.62
7690,73.75,42.5,-198.25,-5.56,-3.11,-21.93
7700,82.56,60.44,-210.81,-5.96,-2.33,-21.91
7710,98.31,79.69,-221.5,-6.41,-1.4,-21.94
7720,114.62,95.37,-229.69,-6.67,-0.31,-21.87
7730,128.62,105.56,-230.56,-7.42,2.5,-22.07
7740,140.44,115.5,-219.94,-7.72,3.55,-22.15
7750,151.5,131.25,-195.56,-7.38,4.5,-21.55
7760,149.81,145.37,-158.06,-6.89,5.23,-22.05
7770,109.31,155.5,-111,-6.27,4.91,-21.74
7780,37.75,158.12,-60,-5.72,4.09,-20.42
7790,-25.31,151.94,-14.38,-4.87,2.95,-18.42
7800,-50.69,140.19,17.94,-3.27,-0.31,-15.86
7810,-43.44,128.31,30.69,-2.27,-1.63,-15.6
7820,-18.69,124.87,24.94,-1.63,-2.34,-15.5
7830,14.31,128.94,10.81,-1.11,-1.71,-14.76
7840,43.94,138.06,4.5,-0.93,-1.57,-14.59
7850,44.56,134.62,5.94,-0.47,-1.79,-14.8
7860,11.81,118.19,4.25,-0.22,-1.77,-14.64
7870,-18.37,97.06,-1.94,-0.66,-0.29,-12.15
7880,-18.06,68.44,-6.44,-0.94,0.7,-11.38
7890,1.56,31.62,-8.13,-1.27,1.78,-11.68
7900,19.19,-2.06,-5.19,-2.01,4.14,-14.94
7910,23.06,-21.31,6.69,-2.3,5.06,-16.52
7920,16.06,-25.94,28,-2.49,5.71,-17.69
7930,4.06,-21.75,55.5,-2.77,6.12,-18.17
7940,-5.12,-24.37,87.12,-3,5.8,-18.72
7950,-16.56,-35.56,118.56,-2.91,5.03,-20.14
7960,-41.44,-42.06,144.5,-2.6,4.16,-21.58
7970,-66.5,-37.25,163.62,-2.18,2.9,-22.16
7980,-70.81,-23.37,179.06,-2.23,2.4,-22.2
7990,-58.13,-5.12,193.31,-2.01,1.96,-22.64
8000,-50.44,14.63,209.37,-1.41,0.2,-24.22
8010,-63.19,33.56,228.87,-1.13,-1.15,-24.35
8020,-90.44,43.25,249.12,-0.71,-2.59,-24
8030,-116.19,40.25,267.44,-0.27,-4.07,-23.79
8040,-133.37,32.25,279.62,0.74,-7.4,-24.29
8050,-144.44,26.69,278.81,1.18,-8.65,-24.91
8060,-152.12,28.25,264.37,1.64,-9.6,-25.56
8070,-158.25,39.88,236.62,2.1,-10.23,-26.57
8080,-160.62,64.37,205.37,2.33,-9.76,-26.3
8090,-149.44,97.19,177.62,2.68,-9.18,-25.72
8100,-121.31,135.87,154.19,2.98,-8.64,-24.94
8110,-87.25,175.31,135.37,3.06,-7.72,-22.8
8120,-63.38,209.62,126.12,3.54,-7.55,-21.32
8130,-45.25,237.94,119.44,3.7,-7.44,-19.53
8140,-32.38,252.81,114.19,4.51,-7.55,-16.26
8150,-25.5,256.56,108.44,5.16,-7.69,-14.89
8160,-22.75,250.87,100.19,5.87,-7.86,-13.61
8170,-25.19,231.87,89.69,6.27,-8.18,-12.55
8180,-29.75,197.81,74.25,6.96,-8.9,-11.27
8190,-32,156.25,53,7.27,-9.25,-11.65
8200,-41.69,118.19,26.75,7.55,-9.4,-12.33
8210,-58.56,89.31,0.13,7.51,-8.65,-13.32
8220,-67.06,75.56,-18.44,7.49,-8.13,-13.8
8230,-61.31,81,-30,7.42,-7.87,-14.25
8240,-50.31,98.62,-39.38,7.21,-7.52,-13.7
8250,-40,113.06,-49.13,7.33,-7.34,-12.99
8260,-32.13,117.69,-58.81,7.42,-7.28,-12.36
8270,-26.12,115.12,-71.75,7.53,-7.24,-11.8
8280,-21.19,108.37,-88.44,6.94,-6.2,-11.16
8290,-15.13,99.25,-101.56,7.07,-5.72,-10.85
8300,-2.94,92.25,-114,6.99,-4.98,-10.46
8310,13.75,84.12,-120.87,6.44,-3.75,-10.55
8320,23.37,75.87,-119.31,6.33,-3.73,-10.68
8330,18.87,67.94,-115.5,6.41,-3.96,-10.87
8340,6.19,62.38,-116.44,7.18,-3.92,-10.58
8350,-1.56,61.25,-119.75,6.89,-4.09,-9.29
8360,-1.56,61.25,-119.75,6.85,-4.01,-8.89
8370,4.37,42.88,-133.06,6.78,-3.95,-8.81
8380,5.19,27.87,-143.25,6.58,-3.43,-8.67
8390,4.12,14.13,-154.25,6.36,-2.87,-8.81
8400,-2.69,1.25,-162.44,6.13,-2.37,-8.68
8410,-2.69,1.25,-162.44,5.81,-1.45,-8.06
8420,-7.87,-10.63,-167.44,5.64,-1.01,-7.98
8430,6.19,-32.31,-180.81,5.3,-0.46,-8.17
8440,15.06,-42.69,-192.12,4.94,0.33,-8.34
8450,19.31,-54.75,-201.06,4.27,2.16,-8.5
8460,19.31,-54.75,-201.06,3.95,3.03,-8.71
8470,22.12,-70.06,-206.62,3.53,4.03,-9.01
8480,42.31,-93.56,-220.25,2.59,6.67,-9.8
8490,58.5,-105,-225.12,1.93,8.2,-10.54
8500,71.06,-116.87,-222.56,1.31,9.65,-11.42
8510,71.06,-116.87,-222.56,1.31,9.65,-11.42
8520,82.06,-122.94,-212.44,-0.12,12.74,-12.32
8530,130.37,-129.25,-189.75,-0.77,13.66,-13.24
8540,147.94,-136,-180.19,-1.55,14.76,-14.13
8550,158.5,-139.37,-162.62,-2.93,17.36,-15.78
8560,158.5,-139.37,-162.62,-2.93,17.36,-15.78
8570,166.19,-136.81,-131.62,-3.76,18.36,-17.83
8580,156.87,-105.44,-31.69,-3.74,17.98,-19.31
8590,112.44,-81.87,24.44,-2.86,15.9,-20.41
8600,50.56,-61,71.81,-2.33,14.48,-19.45
8610,50.56,-61,71.81,-2.33,14.48,-19.45
8620,5.81,-44.13,109.5,-1.96,12.91,-17.12
8630,9.06,-45,148.62,0,8.06,-13.73
8640,25.75,-55.25,151.06,0.27,7.02,-13.43
8650,39.5,-68.19,151.56,0.33,5.27,-13.8
8660,39.5,-68.19,151.56,0.33,5.27,-13.8
8670,45.38,-80.69,152.81,-0.09,4.49,-13.9
8680,39.44,-115.25,166.5,-0.44,2.74,-14.66
8690,24.75,-141.75,175.62,-0.4,0.45,-16.5
8700,8.56,-167.37,177.44,-0.48,-0.39,-17.48
8710,8.56,-167.37,177.44,-0.48,-0.39,-17.48
8720,0.31,-183.12,172.87,-0.63,-1.04,-18.41
8730,13.81,-164.81,155.87,-0.89,-2.37,-20.08
8740,15.5,-151.87,152.62,-0.78,-3.1,-20.37
8750,4.62,-146.56,148.87,-0.56,-3.93,-20.59
8760,4.62,-146.56,148.87,-0.56,-3.93,-20.59
8770,-10.56,-145.31,139.69,0.18,-5.46,-20.62
8780,-11.75,-128.44,95.44,0.18,-6.3,-19.76
8790,3.94,-119.06,65.25,-0.12,-6.07,-19.41
8800,18.94,-112.12,35.56,-0.49,-5.43,-19.11
8810,18.94,-112.12,35.56,-0.49,-5.43,-19.11
8820,32.06,-108,11.94,-1.02,-4.62,-18.88
8830,40.06,-109,0.62,-1.65,-3.98,-19.93
8840,30.25,-114.31,-4.94,-1.94,-3.81,-19.55
8850,9.38,-118.75,-10.44,-2.04,-4.01,-19.57
8860,1.44,-121.62,-12.5,-2.04,-4.01,-19.57
8870,5.87,-117.81,-17.75,-1.84,-4.84,-19.98
8880,15.63,-106.06,-29.25,-1.81,-5.46,-19.82
8890,29.5,-86.75,-46.75,-1.69,-5.85,-18.76
8900,46.06,-64.25,-64.37,-1.84,-6.12,-18.26
8910,57.81,-50.88,-81.31,-1.84,-6.12,-18.26
8920,59.5,-53.06,-101.31,-1.87,-6.3,-18.05
8930,55.13,-64.94,-126.69,-3.23,-3.62,-18.54
8940,58.5,-71.87,-151.12,-3.69,-2.74,-18.86
8950,74.69,-68.56,-162.94,-4.1,-2.39,-19.53
8960,87.19,-63,-160,-4.1,-2.39,-19.53
8970,76.44,-60.13,-146.81,-4.05,-3.07,-20.71
8980,45,-60.5,-134.75,-4.68,-3.98,-20
8990,18.87,-65.25,-133,-5.17,-4.39,-20.42
9000,13.31,-72.94,-136,-6.18,-4.69,-22.76
9010,12.63,-80.12,-143.87,-6.18,-4.69,-22.76
9020,5.25,-77.19,-153.69,-6.84,-4.4,-23.74
9030,-6.12,-61.75,-159,-8.01,-3.4,-24.7
9040,-16.12,-36.75,-158.12,-8.13,-3,-24.34
9050,-17.31,-6.75,-158.12,-8.36,-2.69,-24.15
9060,-5.75,22.62,-159.19,-8.36,-2.69,-24.15
9070,8.69,47.19,-160.94,-8.49,-2.39,-24.09
9080,16.12,65.37,-166.06,-9.6,-0.2,-23.1
9090,22.56,78,-170.87,-9.73,0.55,-23.4
9100,31.12,84.5,-169.5,-9.96,2.19,-24.42
9110,32.75,92.31,-162.75,-9.96,2.19,-24.42
9120,25.31,107.81,-147.81,-9.83,2.88,-24.46
9130,15.69,133.12,-123.44,-9.15,2.92,-22.44
9140,7.5,162.5,-90.81,-8.32,2.03,-21.12
9150,-7.06,187.56,-56.38,-7.23,0.75,-19.61
9160,-26.31,205.75,-25.94,-7.23,0.75,-19.61
9170,-40.81,216.44,-4.5,-6.03,-0.74,-18.08
9180,-43.44,222.44,2.44,-3.12,-3.51,-13.84
9190,-30,225.19,-5.19,-2.45,-3.49,-12.85
9200,-7.69,221.75,-24.56,-2.2,-1.56,-11.53
9210,13.19,208.69,-50.81,-2.2,-1.56,-11.53
9220,24.62,183.75,-72.56,-2.16,-0.12,-11.39
9230,21.37,150.12,-84.25,-2.86,2.96,-11.63
9240,0.19,108.31,-78.94,-3.41,5.39,-12.81
9250,-29.56,58.06,-61.88,-3.73,6.21,-13.78
9260,-47.56,18,-37.63,-3.73,6.21,-13.78
9270,-47.63,-6.31,-9.63,-3.82,6.7,-15.07
9280,-42,-15.69,15.94,-3.95,7.63,-18
9290,-37.38,-10.94,38.88,-4.18,7.55,-18.51
9300,-31.44,-4.62,64.25,-4.29,7.26,-19.26
9310,-26.06,-1.06,89.56,-4.29,7.26,-19.26
9320,-25.12,2,115.75,-4.05,6.12,-21.15
9330,-31.69,10,145.44,-3.61,5.03,-22.12
9340,-47.13,27.56,173.62,-3.11,3.62,-22.6
9350,-65.56,49.56,192.81,-2.85,1.05,-21.31
9360,-77.06,61.81,205,-2.72,0.15,-20.7
9370,-83,57.69,216.37,-2.18,-0.89,-21.01
9380,-89.69,48.56,225.81,-1.84,-2.81,-22.07
9390,-100.56,40.38,232.06,-1.54,-3.39,-22.73
9400,-113.31,41.5,235.87,-1.23,-3.75,-23
9410,-120.62,54.38,238.31,-0.68,-4.11,-23.2
9420,-121.75,79.56,239.5,0.31,-5.25,-22.43
9430,-119.5,110.94,238.81,0.67,-5.68,-21.55
9440,-115.19,142.31,237.31,1.13,-6.18,-20.2
9450,-111.56,164.31,235.5,2.3,-7.54,-17.1
9460,-109.37,172.12,228.75,2.95,-7.96,-15.58
9470,-101.75,163.62,216.56,3.52,-8.27,-14.45
9480,-85.69,142.06,200.37,4.19,-8.69,-13.82
9490,-65.06,115.25,179.44,5.34,-9.71,-14.17
9500,-46.5,91.69,155.19,5.81,-10.17,-15.16
9510,-38.13,75.5,126.5,6.25,-10.5,-16.33
9520,-38.31,75.5,93.06,6.54,-10.06,-17.15
9530,-32.88,95.25,61.56,6.48,-9.49,-16.77
9540,-16.94,123.69,39,6.5,-9.11,-16.14
9550,-1.19,149,25.12,6.7,-8.96,-15.32
9560,6.44,165.75,14.13,6.92,-8.89,-13.49
9570,10.75,174.69,3.44,6.49,-9.03,-12.56
9580,17.25,177.31,-8.69,8.49,-8.94,-11.37
9590,25.56,168.37,-21.44,7.46,-9.37,-10.16
9600,33.5,152.06,-42.13,8.48,-9.31,-9.5
9610,46.94,143.69,-67.19,8.78,-8.93,-8.69
9620,64.5,133.62,-89.75,8.22,-8.02,-7.74
9630,76.06,113.69,-108.31,8.45,-7.65,-7.56
9640,75.25,92,-120.81,8.3,-7.42,-7.38
9650,63.5,66.37,-131.19,8.34,-7.07,-7.05
9660,50.06,40.25,-139.12,7.94,-6.41,-6.5
9670,39.06,14.94,-144.94,7.76,-6.22,-6.5
9680,30.37,-8.63,-154.69,7.54,-5.93,-6.4
9690,29.19,-26.25,-170.31,6.62,-4.32,-5.79
9700,39.25,-42.94,-184.5,5.95,-3.29,-5.79
9710,54,-61.63,-191.56,5.4,-2.39,-6.07
9720,61.94,-83,-190.5,4.94,-1.72,-6.46
9730,57.44,-109.37,-185.44,4.06,-0.8,-7.69
9740,44.38,-137.12,-179.87,3.66,-0.43,-8.44
9750,31.69,-162.31,-176.56,3.13,-0.03,-9.27
9760,27.69,-177.44,-176.75,2.44,0.82,-10.69
9770,34.25,-182.69,-180.87,1.88,1.49,-11.28
9780,48.13,-184.75,-188.19,1.24,2.3,-11.9
9790,64.87,-189.12,-196.37,0.4,3.37,-12.74
9800,78.62,-196.81,-197.56,-0.72,5.59,-14.83
9810,88.62,-202.06,-190.31,-1.39,6.51,-16.04
9820,95.06,-199.75,-178.25,-1.86,7.39,-17.2
9830,98.44,-187.94,-163,-2.74,9.07,-19.02
9840,99.87,-167.5,-145.37,-3.24,9.68,-19.61
9850,94.87,-147.56,-126.37,-3.8,10.21,-20.01
9860,84.56,-133.12,-109.44,-4.88,11.92,-19.48
9870,84.75,-122.06,-93.25,-5.62,12.94,-18.89
9880,105.69,-116.31,-69,-6.13,13.57,-19.16
9890,130.5,-114.5,-32.06,-6.21,13.52,-20.56
9900,129.56,-108.56,13.38,-6.01,11.98,-23.3
9910,95.94,-100,59,-5.94,10.78,-23.85
9920,45.81,-86.87,96.94,-6.05,9.62,-23.62
9930,8.19,-73.37,127.31,-5.79,7.17,-22.35
9940,-2.37,-59.19,148.94,-5.74,5.93,-22.05
9950,4.62,-45.63,161.12,-5.56,5.05,-21.95
9960,16.44,-33,171.12,-5.32,4.32,-21.97
9970,23.69,-21.75,183.56,-4.76,2.56,-21.97
9980,23.5,-11.63,195.37,-4.52,1.74,-21.73
9990,19.31,-2.69,206.56,-4.26,0.78,-21.47
10000,10,4.37,217.06,-3.73,-1.14,-20.68
