timestamp,gyrox,gyroy,gyroz,accx,accy,accz
10,-22.5,204.87,187.44,0,0,0
20,-48.69,182.19,179.31,0,0,0
30,-76.19,155.12,169,0,0,0
40,-101.31,123.25,151.37,6.78,-6.31,-15.02
50,-116.75,99.87,124.69,7.37,-6.75,-15.6
60,-115.19,94.94,98.12,8.05,-6.44,-15.75
70,-91.25,102.87,75.25,8.34,-6.14,-15.26
80,-54.06,112.25,52.88,8.27,-5.53,-14.6
90,-17.81,117.19,37.25,8.01,-4.31,-13.85
100,1,112.87,27.44,8.18,-4.32,-14.05
110,-2.75,103.37,16.69,8.43,-4.16,-14.24
120,-15.38,96.44,7.37,8.44,-3.46,-13.98
130,-23.75,93.94,3.25,8.46,-3.34,-13.83
140,-30.87,95,1.44,8.67,-3.59,-14.03
150,-46.56,100.12,-3.56,8.95,-3.99,-14.04
160,-63.81,105.81,-11.31,8.36,-4.55,-13.15
170,-77.75,108.62,-19.44,9.41,-4.45,-12.11
180,-85.5,102.44,-29.94,8.82,-5.04,-11.37
190,-78.31,89.56,-49.69,9.22,-4.46,-10.16
200,-61.81,72.44,-65.44,9.27,-4.29,-10.02
210,-44.44,52.06,-80.94,9.14,-4.05,-10.25
220,-29.06,35.69,-100.56,9.08,-3.92,-10.69
230,-9.06,28.81,-125.5,8.87,-2.7,-11.46
240,16.37,34.25,-143.62,8.54,-2.01,-11.8
250,36.19,45.19,-158.31,8.4,-1.51,-11.78
260,44.44,52,-175.25,7.81,-0.15,-10.76
270,46.88,54.5,-190.19,7.33,0.87,-10.16
280,49,51.38,-202.5,7.05,1.97,-9.29
290,58.5,39.69,-211.94,5.95,4.59,-8.42
300,69.87,24.12,-209.25,5.68,5.62,-8.54
310,71.69,5.25,-197.69,5.49,6.27,-8.94
320,58.13,-14.25,-184.62,5.52,6.69,-9.44
330,33.38,-29.94,-175.44,5.58,7.28,-9.78
340,9.19,-42.31,-171.12,5.54,7.75,-9.41
350,-5.56,-56.19,-171.25,5.31,8.43,-8.97
360,-10.13,-74.31,-171,4.91,10.02,-9.13
370,-11.44,-96.12,-168.12,4.38,10.91,-9.76
380,-10.25,-118.56,-165.12,3.8,11.83,-10.49
390,0.81,-136.56,-161.12,3.14,12.75,-11.51
400,18.94,-146.25,-155.19,2.33,14.24,-14.66
410,38.13,-136.5,-149,1.85,15.22,-16.12
420,53.31,-109.56,-137.44,1.35,16.36,-16.81
430,53.31,-109.56,-137.44,0.9,18.23,-16.52
440,72,-67.94,-89.37,0.88,18.48,-16.8
450,67.12,-59.5,-62.19,0.83,18.35,-17.11
460,51.81,-59.19,-41.25,0.65,18.27,-16.96
470,38.25,-63.38,-25.06,0.07,18.65,-16.95
480,38.25,-63.38,-25.06,-0.26,18.93,-16.99
490,32.5,-65.44,14.06,-0.53,19,-17.27
500,33.13,-59.69,42.06,-0.45,18.11,-17.82
510,23.37,-53.88,74.56,0.01,16.7,-18.07
520,-2.62,-54.13,102.56,0.64,14.88,-18.18
530,-2.62,-54.13,102.56,1.4,13.3,-17.97
540,-33.5,-58.31,118.25,2.22,11.29,-16.8
550,-34.69,-52,115.06,2.05,10.96,-15.99
560,-1.44,-47.44,107.56,1.51,11.04,-15.15
570,36.44,-52.25,111.25,0.81,11,-15.95
580,36.44,-52.25,111.25,0.85,10.3,-17.06
590,46.75,-62.5,124.69,1.02,9.38,-17.64
600,-15.31,-96.87,156.25,1.74,6.88,-18.39
610,-45.38,-110.25,165.19,2.13,5.51,-18.49
620,-61.13,-117.37,166.12,2.58,4.16,-18.79
630,-61.13,-117.37,166.12,2.96,3.06,-18.98
640,-66.62,-116.06,155.56,3.75,1.72,-18.94
650,-58.31,-93.81,109.94,3.71,1.83,-18.06
660,-42.44,-86.19,86.62,3.61,2.25,-16.96
670,-21,-86.94,72.25,3.67,2.24,-16.25
680,-21,-86.94,72.25,3.54,2.08,-16.19
690,-5.56,-92.75,61,3.66,1.95,-16.04
700,16.81,-105.62,37.5,3.37,1.78,-16.1
710,26.31,-111.94,25.81,3.55,1,-16.11
720,32.13,-121.12,9.63,3.25,0.92,-16.49
730,32.13,-121.12,9.63,2.91,0.98,-16.8
740,30.69,-130.5,-10.13,2.24,1.91,-17.13
750,31.75,-143.19,-49.38,1.38,2.74,-17.39
760,42.19,-144.31,-56.75,0.57,3.63,-18.01
770,44.44,-141.75,-53.38,0.01,3.65,-18.95
780,44.44,-141.75,-53.38,0.01,3.65,-18.95
790,31.81,-136.37,-53.63,-0.3,3.75,-19.82
800,0.06,-127.12,-47.75,-0.57,3.08,-19.81
810,-5.87,-121.81,-52.44,-0.72,2.52,-19.78
820,-6.44,-114.06,-59.44,-0.75,2.51,-19.58
830,-6.44,-114.06,-59.44,-0.75,2.51,-19.58
840,0.56,-107.87,-67.06,-0.92,2.67,-19.32
850,24.56,-101.12,-78.75,-1.43,2.31,-20.18
860,31.87,-102.62,-90.56,-1.92,2.55,-20.62
870,42.13,-104.37,-101.62,-2.39,2.96,-21.01
880,42.13,-104.37,-101.62,-2.39,2.96,-21.01
890,56.69,-104.62,-109.25,-3.78,3.78,-23.04
900,63.56,-98.44,-111.25,-4.83,3.95,-25.45
910,54.25,-86.87,-108.25,-5.11,3.76,-27.08
920,30.69,-68.75,-101.56,-4.88,3.52,-27.15
930,0.25,-42.56,-94.25,-4.88,3.52,-27.15
940,-26.94,-9.75,-90.94,-5.08,3.45,-26.92
950,-43.56,25.75,-89.94,-5.34,3.36,-23.04
960,-46.19,50.44,-94,-5.51,3.6,-22.14
970,-35.13,65,-103.94,-5.76,3.66,-21.42
980,-12.75,75.44,-115.69,-5.76,3.66,-21.42
990,12.31,78.81,-128.87,-6.57,4.5,-21.3
1000,29.75,76.69,-140.62,-7.24,6,-22.34
1010,38.44,79.06,-151.25,-7.58,7.04,-22.5
1020,44.56,87.56,-155.44,-8.5,9.01,-22.55
1030,49.38,101.56,-149.12,-8.5,9.01,-22.55
1040,45.94,114,-135.37,-8.62,9.8,-22.27
1050,29.37,120.81,-115.44,-8.62,10.85,-21.19
1060,1.37,118.94,-91.19,-8.29,10.97,-20.84
1070,-27.06,108.37,-67.94,-7.9,10.93,-20.57
1080,-43.06,101.5,-46.38,-7.9,10.93,-20.57
1090,-45.69,101.31,-26.56,-7.15,10.28,-20.34
1100,-39.44,105,-11.94,-6.21,9.72,-20.22
1110,-25.12,113.87,-1.44,-5.79,9.39,-19.98
1120,-8.88,125.94,7.62,-5.08,9.02,-19.28
1130,0.56,134.56,14.06,-5.08,9.02,-19.28
1140,2.06,137,18.12,-4.98,9.32,-18.95
1150,-0.25,133.81,25,-4.34,10.05,-19.02
1160,-5.75,126.56,36.88,-4.14,10.24,-19.36
1170,-18.44,119.62,49.56,-4.01,10.65,-19.49
1180,-34.44,115.75,60.5,-4.01,10.65,-19.49
1190,-44.13,117.37,74.25,-3.69,10.97,-19.38
1200,-44,122.25,88.31,-2.96,11.61,-18.52
1210,-38.69,125.81,102.12,-2.6,11.67,-18.41
1220,-31.81,127.87,119.31,-1.48,10.85,-18.17
1230,-29.69,128.75,138.31,-1.48,10.85,-18.17
1240,-37.44,125.69,156.37,-0.62,10.15,-17.99
1250,-53.06,119.12,169.87,1.51,8.16,-16.9
1260,-69.5,111.94,178.87,2.48,7.38,-16.58
1270,-83.06,101.37,185.56,3.33,6.97,-16.27
1280,-92.94,88.44,183.81,3.33,6.97,-16.27
1290,-96.87,73.25,175.44,3.82,6.94,-15.95
1300,-92.81,54.81,167.12,4.43,7.49,-16.85
1310,-80.5,39.5,161.37,4.37,7.31,-17.74
1320,-65.37,29.81,162.12,4.49,6.13,-20.4
1330,-57.88,22.44,167.56,4.49,6.13,-20.4
1340,-61.69,22.44,172.37,5,5.62,-21.29
1350,-68.94,33.56,174.12,5.9,5.01,-21.71
1360,-70.06,53.75,174.25,6.48,4.03,-20.59
1370,-62.38,80.06,175.75,6.79,3.47,-19.52
1380,-51.13,107.37,176.94,6.79,3.47,-19.52
1390,-40.94,131.62,177.62,7.14,2.86,-18.18
1400,-34.81,149.75,177.69,7.57,0.81,-13.93
1410,-33.81,155.94,180.56,8.39,-0.17,-12.97
1420,-38.13,142.69,180.5,8.39,-0.17,-12.97
1430,-49.06,112.56,173,9.37,-1.1,-12.61
1440,-66.44,77.37,157.94,10.46,-3.03,-13.71
1450,-86,48.75,134.87,10.89,-3.64,-14.5
1460,-98.37,33.19,107.31,11.12,-3.82,-15.38
1470,-93.94,40.06,81.44,11.22,-3.6,-15.59
1480,-68.62,61.06,57.31,11.15,-3.29,-15.14
1490,-30.81,84.75,35.56,10.27,-3.04,-14.87
1500,4.31,109.69,18.75,11.96,-2.34,-13.82
1510,30.94,119.56,7.56,10.54,-2.53,-11.94
1520,43.63,111.44,-5.75,11.11,-2.17,-11.46
1530,35.44,85.44,-11.69,10.25,-2.71,-11.75
1540,17.5,58.25,-25.56,10.91,-2.47,-12.09
1550,3.19,33.88,-36.13,10.8,-2.57,-13.04
1560,-8.69,19.44,-46.31,10.89,-2.5,-14.05
1570,-16.62,21.5,-56.38,10.63,-2.08,-15.39
1580,-16.06,41.31,-65.69,10.55,-1.76,-15.03
1590,-3.87,68.31,-74,10.42,-1.46,-13.94
1600,18.87,90.31,-83.06,10.34,-1.2,-12.62
1610,44.38,101.31,-93.44,10.31,-0.82,-10.87
1620,61.94,103.81,-106.37,10.26,-0.39,-10.37
1630,66.87,102.25,-117.5,10.15,0,-9.79
1640,63.69,98.56,-127.25,10.1,0.85,-8.4
1650,58.5,90.37,-137.12,10,1.38,-7.68
1660,53.44,77,-147.37,9.93,1.92,-7.03
1670,51.13,58.75,-158.5,9.56,2.65,-6.52
1680,53.81,38.06,-168.37,8.67,4.38,-5.88
1690,59.19,15,-171.44,8.33,5.17,-6.04
1700,59.19,-9.31,-169.06,8.12,5.72,-6.57
1710,49.44,-29.12,-165.25,8.06,6.32,-7.75
1720,29.5,-43.25,-164.31,7.89,6.7,-8.02
1730,7.56,-52.69,-166.62,7.62,7.15,-7.86
1740,-5.06,-61.63,-169.5,7.15,8.09,-7.26
1750,-4.44,-72.75,-172.87,6.86,8.71,-7.43
1760,5.87,-82.44,-176.94,6.46,9.34,-7.71
1770,19.31,-90.94,-183.12,6.07,10.14,-7.92
1780,31.56,-107.12,-192.37,5.08,12.5,-8.84
1790,44,-129.25,-200.19,4.07,14.17,-10.09
1800,59.69,-143.5,-198.44,3.14,15.75,-11.35
1810,80.87,-144.5,-185.25,1.91,18.24,-14.34
1820,98.56,-128,-163,1.4,19.11,-15.41
1830,102.94,-102.25,-135.37,0.97,19.76,-15.74
1840,94.19,-83.37,-105.31,0.61,20.24,-15.68
1850,79.5,-72.87,-73.69,0.37,21,-14.85
1860,66.25,-69.44,-37.06,0.45,20.49,-14.45
1870,53.88,-74.62,-2,0.85,19.38,-14.51
1880,39.5,-83.31,18.81,1.4,17.97,-14.29
1890,31.25,-93.94,28.31,1.11,18.1,-14.31
1900,35.88,-101.87,38.13,0.66,18.35,-14.62
1910,45.13,-106.81,54.06,0.29,18.26,-15.15
1920,47.19,-112.31,76.69,0.06,17.24,-16.72
1930,32.38,-119.81,104.69,0.21,15.8,-17.24
1940,8.13,-129.25,125.37,0.37,14.49,-17.48
1950,-7.12,-139.44,139.37,0.83,11.94,-17.8
1960,-8.88,-149.37,146.25,0.84,10.89,-18.58
1970,-2.81,-151.5,146.81,0.85,10.1,-19.37
1980,4.44,-145.81,145,0.81,9.12,-20.81
1990,9.94,-133.25,144.87,0.82,8.6,-21.15
2000,11.31,-119.25,148.44,0.89,7.95,-21.25
2010,8.5,-108.12,154.56,1.1,7.11,-21.51
2020,-2.5,-96.31,160.81,2.04,4.73,-21.52
2030,-21.31,-86.06,161.94,2.41,3.71,-21.12
2040,-41.56,-76.44,154.56,2.77,3.07,-20.25
2050,-53,-71.75,142.75,3.15,2.15,-17.89
2060,-49.81,-73.56,128.19,3.24,1.81,-17.17
2070,-38.38,-82.75,112.19,3.33,1.39,-16.97
2080,-31.25,-98.06,94.87,3.34,1.03,-17.13
2090,-34.44,-115.81,76,3.47,0.5,-18.16
2100,-44.88,-130.87,54.56,3.3,0.56,-18.45
2110,-50.56,-138.31,32.63,3.15,0.83,-18.72
2120,-45.25,-137.19,13.38,2.74,1.04,-19.08
2130,-30.37,-129.37,-4.31,2.62,1.19,-19.36
2140,-13.31,-115.56,-20,2.59,1.19,-19.45
2150,-2.62,-102,-35.5,2.2,1.25,-19.44
2160,0.81,-91.75,-52.5,1.48,1.76,-18.5
2170,7.06,-85,-67.5,0.97,1.98,-17.85
2180,17.12,-87.06,-78.31,0.65,1.73,-17.72
2190,27.5,-90.31,-92.94,0.44,1.99,-17.63
2200,41,-92.06,-107.56,0.24,2.12,-17.76
2210,53.25,-95.75,-116.69,0.1,2.02,-18.21
2220,50.38,-102.94,-125.19,-0.55,2.42,-19.79
2230,25.75,-112.75,-136.25,-1.06,3.09,-20.33
2240,-7.06,-121.94,-143.06,-1.77,3.58,-20.72
2250,-25.69,-122.5,-148.56,-2.53,4.11,-21.05
2260,-22.62,-112.5,-152.44,-3.44,5.17,-22.01
2270,-6.12,-92.44,-151.37,-3.97,5.33,-22.74
2280,5.25,-66.37,-147.62,-4.34,5.24,-23.34
2290,1.69,-44,-146.44,-4.92,5.17,-23.72
2300,-8,-24.12,-152.62,-5.47,5.45,-23.26
2310,-7,-7.19,-161.56,-6.1,6.04,-22.65
2320,12,7.44,-168.37,-6.84,6.69,-22.53
2330,34.69,22.81,-167.12,-7.69,7.61,-22.85
2340,44.25,35.5,-159.81,-7.93,7.74,-23.22
2350,32.56,44.19,-149.37,-7.95,7.82,-23.53
2360,5.06,52.5,-138.12,-7.96,7.81,-23.06
2370,-21.56,62.19,-131.75,-8.01,8.01,-22.34
2380,-29.81,75.81,-130.12,-8.15,8.41,-21.39
2390,-15.81,93.06,-127.56,-8.24,8.79,-20.36
2400,10.56,105.75,-121.62,-8.41,9.18,-19.42
2410,29.81,111.06,-110.06,-8.04,8.85,-19.67
2420,25.12,107.31,-98.25,-7.59,8.55,-20.13
2430,1.75,103.75,-90.69,-7.56,8.84,-20.01
2440,-22.19,103.44,-82.62,-7.46,9.04,-19.7
2450,-35.69,101.06,-74.69,-7.4,9.29,-19.69
2460,-36.13,103.81,-67,-7.45,9.88,-19.51
2470,-23.5,113.5,-58.69,-7.38,10.27,-19.31
2480,-1.87,126.31,-47,-7.27,10.31,-19.16
2490,17.56,139.5,-32.25,-6.9,10,-18.97
2500,24.94,147.12,-17.87,-6.29,9.19,-18.49
2510,19.62,149.12,-6.44,-5.78,8.78,-18.05
2520,10.19,148.12,3.06,-5.34,8.41,-17.46
2530,3.94,146.12,11.13,-4.66,7.57,-16.02
2540,0.75,141.31,18.06,-4.18,7.08,-15.53
2550,-4.12,131.37,25.25,-3.66,6.47,-15.15
2560,-13.19,117.06,29.62,-3.14,5.8,-14.8
2570,-22.81,100.44,27.62,-2.3,5.13,-13.61
2580,-21.56,82.94,19.06,-1.92,5.38,-13.1
2590,-5.56,66.25,8.63,-1.94,5.81,-13.13
2600,14.75,54.88,0.19,-1.89,7.27,-13.69
2610,28.31,42.94,-4.12,-2.11,8.01,-14.48
2620,27.12,32.25,-6.06,-2.37,9.02,-14.87
2630,16.81,21.81,-4,-2.73,10.24,-15.07
2640,5.75,7.87,7.06,-3.15,11.76,-15.76
2650,-0.25,-7.81,17.44,-3.17,12.56,-16.39
2660,2.06,-18.44,23.44,-3.44,13.66,-17.2
2670,9.56,-24.06,30.62,-4.85,16.42,-19.03
2680,17.12,-26.5,48.31,-5.36,17.42,-20.08
2690,21.25,-23.94,78.69,-5.84,18.1,-21.12
2700,18,-14.75,123.81,-5.67,17.11,-23.2
2710,1.25,-3.69,177.31,-4.75,15.31,-24.23
2720,-31,8.19,221.37,-3.98,13.49,-24.59
2730,-67.94,19.37,250.62,-3.21,11.88,-24.32
2740,-92.44,27.44,269.25,-1.79,9.07,-23.64
2750,-100.25,37.06,277.87,-1.21,8.08,-23.1
2760,-91.87,48.06,278.94,-0.71,7.32,-22.43
2770,-72.75,53.13,276.75,-0.38,5.77,-22.9
2780,-56.38,55.69,274.56,-0.07,5.04,-23.46
2790,-53.38,57.06,273.62,0.24,4.38,-24.06
2800,-64.81,56.81,273.94,0.81,3.69,-24.65
2810,-86.44,58.13,275.44,1.82,2.01,-25.37
2820,-108.87,65.06,277.87,2.41,1.11,-25.41
2830,-125,79.62,277.81,3.24,0.24,-25.07
2840,-129.5,103.06,272,4.55,-1.24,-22.95
2850,-117.81,131,259.5,5.32,-1.54,-21.38
2860,-92.31,159.5,243.62,6.11,-1.72,-19.66
2870,-60.38,185.81,227.69,6.9,-1.92,-17.87
2880,-33.56,204.06,213.75,8.32,-3.03,-15.12
2890,-22.31,211.25,199.25,9.18,-3.76,-13.7
2900,-23.5,207.31,180.75,9.86,-4.38,-12.24
2910,-27.31,189.12,159.44,10.83,-5.34,-9.86
2920,-26.19,155.94,136.5,11.6,-5.9,-9.33
2930,-18.87,112.06,109.81,12.24,-6.48,-9.54
2940,-9.5,67.37,77.31,12.7,-6.75,-12.24
2950,-0.69,34.06,38.69,12.48,-6.05,-14.03
2960,9.94,25,6.25,12.2,-5.18,-15.58
2970,25.56,45.44,-16.87,11.84,-4.26,-16.56
2980,40.94,83.69,-30.25,11.07,-2.8,-16.3
2990,49.69,121.19,-35.63,10.94,-2.45,-15.14
3000,48.69,147.37,-38.69,10.87,-2.13,-13.6
3010,42.63,154.94,-41.38,10.76,-2.06,-11.52
3020,30.12,145.31,-43.19,10.71,-2.27,-10.67
3030,12.5,128.5,-45.44,10.86,-2.66,-9.91
3040,3,111.56,-55.06,11.3,-2.7,-9.06
3050,5.44,93,-66.94,11.48,-3.13,-9.23
3060,11.19,76.75,-85.81,11.47,-2.93,-9.62
3070,18.56,72.75,-109.25,11.04,-2.1,-9.47
3080,32.75,77.75,-130.19,10.03,0.05,-8.52
3090,32.75,77.75,-130.19,9.91,0.65,-8.33
3100,49.69,80.75,-138.5,9.83,1.05,-8.26
3110,48.88,70.5,-145.75,9.7,1.5,-8.05
3120,32.13,59.94,-151.81,9.13,2.67,-7.26
3130,17.25,48.56,-156.06,8.8,3.33,-6.71
3140,17.25,48.56,-156.06,8.47,3.9,-6.28
3150,9.25,36.56,-157.12,8.28,4.6,-5.66
3160,14.63,8.38,-156.81,8.15,5.11,-5.69
3170,21.62,-7.25,-160.44,7.95,5.63,-5.96
3180,25.06,-20.37,-165.69,7.77,6.88,-6.11
3190,25.06,-20.37,-165.69,7.63,7.56,-6.48
3200,25.69,-36.25,-169.69,7.47,8.46,-6.87
3210,33.44,-65.56,-181.19,7.24,9.62,-7.41
3220,46.69,-72.37,-185.94,6.46,12.19,-8.35
3230,63.19,-71.75,-183.19,6.06,13.41,-8.81
3240,63.19,-71.75,-183.19,5.73,14.25,-9.27
3250,76.06,-70.31,-170,5.57,15.27,-9.96
3260,67.69,-75.25,-135.75,5.52,15.66,-10.22
3270,49.25,-86.37,-125.62,5.35,16.41,-10.38
3280,34.5,-98.56,-122.44,5.03,17.5,-10.44
3290,34.5,-98.56,-122.44,5.03,17.5,-10.44
3300,32.5,-107.75,-114.69,4.52,19.58,-10.68
3310,59.38,-119.94,-74.06,3.8,20.43,-12.11
3320,72.06,-124,-50.56,3.46,20.76,-14.51
3330,74.12,-121.19,-28.44,3.07,20.93,-15.33
3340,74.12,-121.19,-28.44,3.07,20.93,-15.33
3350,70.44,-110.06,-5.87,2.32,21.01,-15.57
3360,65.12,-81.62,52.63,2.35,19.44,-14.98
3370,58.94,-77.81,83.81,2.49,17.91,-14.6
3380,41.56,-88.62,109.56,2.72,16.29,-14.47
3390,41.56,-88.62,109.56,2.72,16.29,-14.47
3400,18.25,-113.87,128.25,3.01,13.19,-15.34
3410,-10.63,-171.75,140.75,2.98,10.96,-17.7
3420,-8.88,-186.25,139.12,3.17,9.84,-20.94
3430,-3,-184.56,139,3.26,8.89,-22.36
3440,-3,-184.56,139,3.26,8.89,-22.36
3450,-0.75,-165.06,138.69,3.56,8.23,-23.2
3460,-6.5,-103.25,132.31,4.46,6.38,-22.53
3470,-7.06,-70.12,128.37,4.77,5.94,-21.11
3480,-0.69,-43.25,123.37,5.16,5.55,-19.6
3490,-0.69,-43.25,123.37,5.16,5.55,-19.6
3500,7.5,-28.06,119.06,5.75,4.5,-17.64
3510,-5.37,-27,105.75,6.3,3.58,-15.55
3520,-19.19,-39.19,94.56,6.28,3.25,-14.41
3530,-19.19,-39.19,94.56,6.17,2.53,-12.73
3540,-26.31,-59.75,83.62,6.17,2.53,-12.73
3550,-25.19,-88.37,69.37,5.93,2.24,-12.73
3560,-20.81,-120.31,54,5.15,1.28,-15.05
3570,-19.87,-147.81,38.19,4.68,1.06,-15.55
3580,-20.25,-166.12,21.06,4.23,0.88,-15.92
3590,-14.63,-176.19,4.56,4.23,0.88,-15.92
3600,0.06,-180.06,-13.06,3.74,0.77,-16.22
3610,19.31,-182.5,-30.75,2.38,0.79,-18.14
3620,34.19,-180.69,-50.25,1.51,1.2,-18.29
3630,41.56,-173.5,-69.56,0.14,2.25,-17.96
3640,40.5,-169.44,-84.87,0.14,2.25,-17.96
3650,38.25,-172.25,-97.81,-0.69,2.99,-18.09
3660,40.94,-179.56,-99.62,-1.58,2.41,-21.19
3670,46.81,-189.06,-92.44,-1.87,2.09,-22.52
3680,52.56,-192.94,-89,-2.2,1.8,-23.63
3690,54.19,-181.31,-91.56,-2.2,1.8,-23.63
3700,47.69,-159.94,-96.37,-2.59,1.54,-24.5
3710,32.25,-134.69,-105.56,-3.51,2.21,-25.1
3720,12.69,-101.37,-114.94,-3.95,2.63,-23.87
3730,-2.37,-63.13,-121.25,-4.43,3.51,-21.32
3740,-3.19,-31.37,-125.19,-4.43,3.51,-21.32
3750,8.31,-12.06,-127.44,-4.55,3.72,-20.82
3760,18.62,-5.94,-127.37,-4.92,3.47,-20.93
3770,18.56,-8.75,-126.56,-5.33,3.69,-22.16
3780,8,-16.87,-129.62,-5.61,4.05,-22.67
3790,-5.62,-20.69,-135.06,-5.61,4.05,-22.67
3800,-16.31,-14.25,-137.56,-5.83,4.21,-22.99
3810,-24.25,-2.81,-138.12,-6.55,5.09,-23.07
3820,-29.37,11.44,-141.12,-6.92,5.62,-23.09
3830,-26.81,24.62,-145.31,-7.28,6.19,-23.48
3840,-18.69,34.38,-148.75,-7.28,6.19,-23.48
3850,-11.63,46.88,-149.19,-7.97,7.36,-24.24
3860,-8.75,62.31,-145.37,-9.08,8.28,-24.69
3870,-10.56,78.12,-139.12,-10.37,9.13,-24.03
3880,-15.94,93,-128.69,-10.62,9.24,-24.31
3890,-23.69,95.5,-112.69,-10.62,9.24,-24.31
3900,-36.19,85.87,-92.44,-10.31,9.04,-25.36
3910,-57.25,76.12,-73.31,-9.18,8.99,-27.52
3920,-83.19,84.75,-58.81,-8.92,9.29,-26.12
3930,-98.87,121.25,-44.5,-8.49,9.2,-23.9
3940,-86.75,174.37,-26.25,-8.49,9.2,-23.9
3950,-48.5,224.25,-9.56,-7.25,7.96,-20.31
3960,-10.19,261.81,-2.31,-5.77,7.51,-17.68
3970,3.06,285,-1.62,-4.71,7.5,-14.09
3980,-7.56,295,0,-3.77,7.52,-12.44
3990,-28.56,290.31,5.75,-3.77,7.52,-12.44
4000,-51.88,271.31,14.75,-2.84,7.44,-11.24
4010,-71.56,248,24.75,-0.37,6.8,-8.72
4020,-85.12,226.5,32.19,0.39,6.74,-7.93
4030,-93.44,207.06,34.31,0.97,6.57,-7.12
4040,-96.62,187.25,35.56,0.97,6.57,-7.12
4050,-93.75,161.12,35.5,2.46,6.13,-6.05
4060,-82.56,129.81,27.75,3.01,6.21,-5.79
4070,-64.56,94.5,7.94,3.39,6.82,-5.53
4080,-37.69,47.56,-20.06,3.2,8.13,-5.65
4090,-0.94,1,-48.44,1.75,12.48,-8.54
4100,35.25,-31.69,-64.12,0.79,14.57,-10.44
4110,57.75,-52,-59.81,0.18,16.15,-11.89
4120,65.31,-66.75,-44,-0.75,18.91,-15.05
4130,60.25,-70.5,-20.25,-1.29,19.86,-16.16
4140,44.88,-72.69,12.06,-1.66,20.49,-17.13
4150,26.37,-73.37,50.56,-2.09,20.49,-18.73
4160,6.75,-67.12,96.44,-1.99,19.37,-19.01
4170,-12.69,-64.31,143.12,-1.67,17.76,-19.49
4180,-30.94,-71.94,179.25,-1.14,16.1,-20.36
4190,-47.44,-80.19,204.5,0.39,13.11,-22.16
4200,-59.31,-82.06,217.5,0.93,12.21,-22.95
4210,-64.81,-73.94,222.44,1.19,11.6,-23.46
4220,-64.44,-56.44,225.56,1.6,10.5,-23.8
4230,-57.69,-32.69,228.25,1.74,9.95,-23.51
4240,-47.25,-8.31,233.75,1.88,9.16,-23.31
4250,-40.75,6.5,241.5,2.1,8.24,-23.44
4260,-45.69,13.81,247.25,2.49,6.64,-23.96
4270,-62.19,17.87,252.75,2.8,5.79,-23.99
4280,-85.44,20.44,259.31,3.16,4.97,-23.97
4290,-106.75,21.94,263.56,3.84,3.26,-24
4300,-120.19,26,268.44,4.56,2.33,-24.09
4310,-124.5,34.69,270.37,5.38,1.44,-24.25
4320,-122.06,55.13,264.25,6.46,0.69,-23.91
4330,-110.75,88.75,247.81,7.23,-0.03,-20.95
4340,-85.19,126.19,226.69,7.27,0,-18.7
4350,-45.63,154.06,208.25,7.54,-0.18,-16.93
4360,-6.44,162.94,195.75,8.5,-1.42,-15.83
4370,17.12,156.75,186.69,9.19,-2.47,-15.95
4380,21.44,146.81,178,9.78,-3.59,-16.21
4390,11.38,142.19,166.25,10.75,-5.11,-14.96
4400,2.25,145.25,146.19,11.32,-5.54,-13.75
4410,7.19,144.87,117.5,11.73,-5.79,-12.91
4420,26.06,139.62,85.62,12.04,-6.01,-12.51
4430,49.19,134.19,51.06,11.93,-5.9,-12.26
4440,66.44,125.56,16.94,11.87,-5.56,-12.15
4450,77.12,114.81,-13.19,11.72,-5.12,-12.16
4460,81.56,105.5,-33.5,11.33,-4.66,-12.6
4470,78.19,98.81,-45.88,11.6,-4.54,-13.06
4480,64.25,97,-60.94,11.05,-4.02,-12.86
4490,47.19,104.37,-78.56,11.22,-3.25,-11.58
4500,49,111.12,-92.44,9.97,-2,-9.82
4510,67.62,110.94,-95.31,10.67,-1.67,-9.45
4520,79.87,106.37,-96.81,10.92,-1.82,-9.44
4530,78.75,101.75,-101.81,11.88,-1.83,-9.36
4540,68.37,100.25,-115.69,10.35,-1.86,-9.2
4550,56.13,105.06,-133.25,10.84,-1.18,-7.77
4560,52.25,97.37,-153.31,10.54,-0.06,-6.94
4570,62.69,90.19,-168.19,9.59,1.89,-5.95
4580,76.12,82.12,-176.75,9.33,2.85,-5.55
4590,85.19,67.56,-177.81,9.12,3.65,-5.15
4600,88.56,45.31,-173.25,8.72,4.67,-5.29
4610,81.19,17.56,-168.75,8.37,5.43,-5.71
4620,58.81,-11.25,-164.87,7.98,6.3,-6.15
4630,26.69,-36.19,-153.62,8.2,6.8,-6.73
4640,-5.19,-55.25,-137.25,8.46,6.56,-6.86
4650,-31.12,-68.69,-126.75,8.75,6.47,-6.95
4660,-44.5,-78.44,-127.5,8.94,6.52,-7.01
4670,-42.5,-86.87,-139.44,8.73,7.66,-7.47
4680,-23.12,-93.81,-161.31,8.06,9.08,-8.13
4690,9.81,-92.69,-180.81,7.29,10.82,-8.9
4700,47.5,-83,-188.19,6.43,13.76,-10
4710,80.69,-70.62,-178.06,6.38,14.54,-10.85
4720,98.62,-65.37,-158.5,6.55,14.99,-12
4730,93.81,-62.63,-143.75,6.52,15.61,-12.67
4740,73.56,-57.5,-138.56,6.1,18.12,-11.79
4750,58.31,-53.19,-134,5.6,19.44,-11.03
4760,60.94,-52.94,-123.44,5.11,20.72,-10.67
4770,74.12,-57.44,-105.75,4.14,22.79,-10.69
4780,84.69,-68.37,-81.94,3.62,23.41,-11.1
4790,85.87,-89.37,-51.19,3.19,23.66,-11.91
4800,80.94,-114.25,-16.81,2.79,23.25,-14.04
4810,76.25,-131.12,18,2.55,22.53,-15.49
4820,70.81,-137.5,54.06,2.47,21.29,-16.92
4830,57.31,-131.25,92,2.65,19.64,-17.9
4840,34.19,-115.31,126.69,3.31,15.75,-17.3
4850,8.75,-100.06,155.25,3.82,13.71,-16.5
4860,-8.44,-94.62,176.31,4.14,11.65,-16.08
4870,-16.12,-94.62,188.75,5.29,8.15,-15.38
4880,-17.87,-94.12,192.37,5.61,6.73,-14.94
4890,-16.19,-98.44,186,5.82,5.63,-14.95
4900,-14.94,-108.5,173.75,5.97,4.67,-15.11
4910,-19.06,-121.31,158.06,6.13,3.57,-15.86
4920,-26.62,-132.12,138.31,5.97,3.39,-15.96
4930,-31.19,-137.12,118.25,5.84,3.38,-15.95
4940,-28.12,-141.44,101.31,5.01,3.38,-16.26
4950,-19.56,-139.56,91,4.74,2.94,-16.15
4960,-12.56,-141.56,88.5,4.63,2.33,-16.6
4970,-10.38,-154,86.37,4.42,1.69,-17.45
4980,-15.81,-166.06,80.12,4.37,0.37,-18.71
4990,-24.19,-176.75,66.31,4.28,0.22,-19.48
5000,-28.19,-180.94,44.44,3.91,0.44,-20.17
5010,-23.12,-170.5,22.19,3.2,0.96,-20.72
5020,-11.69,-150.25,8.38,3.1,0.84,-20.68
5030,0.06,-130.5,1.44,3.04,0.49,-20.5
5040,6.69,-112.62,-3.25,3.01,-0.81,-19.6
5050,3.62,-103.62,-9.94,2.84,-1.66,-18.79
5060,-7,-106.94,-26.06,2.48,-1.95,-17.71
5070,-4.56,-121.37,-55.63,2.49,-1.65,-17.05
5080,23.69,-140.06,-86,1.62,-0.8,-18.43
5090,61.88,-144.94,-108.06,1.22,-0.95,-19.23
5100,86.69,-143.06,-123.25,0.96,-1.09,-19.87
5110,92.94,-142.5,-143,-0.08,0.3,-19.87
5120,96.87,-142.44,-167.06,-1.03,1.17,-19.86
5130,112.81,-144.25,-182.75,-2,1.63,-20.33
5140,134.81,-145.81,-186.62,-2.64,1.9,-21.36
5150,141.81,-149.44,-186.31,-3.56,3.16,-24.4
5160,120.06,-149.69,-175.5,-4.03,2.88,-26.02
5170,62.69,-144.56,-154.75,-4.09,2.36,-27.12
5180,-22.31,-136.5,-140.31,-4.04,2.46,-27.42
5190,-105.62,-115.25,-136.19,-4.82,3.1,-26.33
5200,-162.06,-87.19,-137.44,-5.46,3.93,-24.98
5210,-177,-59.81,-138.25,-6.1,4.84,-23.95
5220,-156.81,-35,-136,-6.98,6.08,-23.92
5230,-123.31,-13.38,-129.44,-7.13,6.31,-24.58
5240,-96.31,10.81,-119.94,-6.92,6.24,-24.82
5250,-80.37,38.69,-117.62,-7.04,6.82,-23.93
5260,-66.12,63.88,-123.5,-7.33,7.5,-23.55
5270,-46.25,84.75,-135.56,-7.78,8.48,-23.1
5280,-22.69,103.62,-147.44,-9.14,10.9,-22.63
5290,-2.94,117.69,-149.5,-9.52,11.8,-22.77
5300,3.75,124.62,-136.06,-9.47,12.32,-22.8
5310,-1.94,128.87,-109.56,-9.1,12.28,-22.84
5320,-13.38,135.37,-79.25,-8.28,11.63,-22.52
5330,-26.12,147.62,-54.06,-7.71,11.16,-21.79
5340,-34.75,164.94,-35.13,-7.28,10.73,-20.9
5350,-34.19,182.75,-23.87,-6.56,10.39,-18.72
5360,-28.62,197.44,-16.19,-6.17,10.17,-17.62
5370,-23.69,207.62,-7.12,-5.62,9.96,-16.45
5380,-23.19,211.06,3.31,-4.94,9.62,-15.17
5390,-23.81,206.62,12.38,-4.05,9.02,-12.69
5400,-20.31,193.37,19.69,-3.39,8.58,-12
5410,-12.88,174.62,27.25,-2.75,8.08,-11.58
5420,-5.75,153.75,32.31,-2.04,7.54,-11.46
5430,-0.81,132,32.69,-1.57,7.59,-11.11
5440,8.13,117.56,29.94,-1.13,7.74,-10.83
5450,27.37,104,24,-0.77,8.12,-10.81
5460,51.69,87.5,12.63,-0.78,9.98,-11.92
5470,69.81,71.31,-3.19,-1.2,11.57,-12.72
5480,72.62,50.25,-18.12,-1.89,13.51,-13.55
5490,60.56,21.44,-22.19,-3.75,17.2,-16.19
5500,39.69,-11.56,-8.88,-4.42,18.34,-17.89
5510,15.63,-39.81,24.81,-4.57,18.57,-19.62
5520,-6.19,-55.31,73.94,-3.79,17.04,-22.9
5530,-26.69,-52.06,122.75,-3.18,15.87,-23.69
5540,-45.5,-37.13,162.37,-2.72,14.74,-24.14
5550,-59.63,-21.12,189.31,-2.33,13.82,-24.34
5560,-64.94,-4.31,206.62,-1.68,12.06,-24.32
5570,-60.56,12.81,221.06,-1.24,10.89,-24.57
5580,-55.31,28.12,235.62,-0.66,9.71,-24.47
5590,-54.56,43.63,246.5,0.54,7.57,-23.91
5600,-55.63,53.5,256.5,1.55,6.24,-24.05
5610,-61.94,58.5,265.37,2.54,4.97,-24.06
5620,-78.56,63.56,264.94,3.55,4.05,-23.88
5630,-101.62,67.12,254.06,4.42,3.15,-23.38
5640,-123.81,70.56,240.62,5.87,3.21,-22.61
5650,-123.81,70.56,240.62,6.13,3.05,-22.12
5660,-143.87,99,225.69,6.03,2.3,-19.39
5670,-144.37,124.56,222.69,6.1,1.85,-17.11
5680,-138.69,144.19,223.37,6.52,1.34,-14.92
5690,-123.75,138.94,221.87,7.33,0.6,-13.65
5700,-105,104.37,213.87,8.89,-1.18,-15.35
5710,-92.94,58.75,195.62,9.35,-1.55,-17.42
5720,-94.75,26.75,169.44,9.38,-1.47,-19.21
5730,-101.69,24.12,145.94,9.44,-1.22,-20.17
5740,-100.62,46.31,129.87,9.01,-1.14,-19.57
5750,-100.62,46.31,129.87,8.95,-1.21,-18.19
5760,-58.56,112.62,110.44,9.4,-1.89,-15.76
5770,-27.31,128.62,101.81,9.87,-2.16,-15.01
5780,0.94,132,86.56,10.09,-2.26,-14.4
5790,22.62,130.75,68.75,10.03,-2.34,-13.74
5800,22.62,130.75,68.75,10.2,-2.51,-13.29
5810,35.94,124.69,52.69,10.49,-2.8,-14.24
5820,29.81,86.06,23.12,10.57,-2.93,-15.6
5830,1.75,74.62,3.94,10.75,-2.03,-16.11
5840,-26.5,83.37,-15.19,10.16,-1.66,-14.67
5850,-26.5,83.37,-15.19,10.14,-1.69,-13.65
5860,-31.56,102.44,-26.19,10.19,-1.14,-12.97
5870,27.62,138.56,-47.38,10.2,-1.22,-11.71
5880,53.63,155.44,-59.06,10.12,-1.08,-10.55
5890,74.25,169.25,-70.44,10.07,-1.16,-9.65
5900,74.25,169.25,-70.44,10.09,-0.81,-8.3
5910,89,173.75,-80.37,10.09,-0.47,-7.1
5920,99.12,178.19,-103.94,10.13,0.18,-5.62
5930,104.5,178,-118.37,9.83,0.99,-4.35
5940,112.19,167.44,-126.87,9.54,1.85,-3.74
5950,112.19,167.44,-126.87,9.54,1.85,-3.74
5960,112,148.19,-125.19,10.32,1.48,-4.19
5970,56.31,86,-133.5,9.89,1.88,-3.36
5980,15,36.69,-150.06,9.72,2.54,-2.98
5990,-13.69,-3.75,-168.19,9.4,3.47,-2.79
6000,-13.69,-3.75,-168.19,9.4,3.47,-2.79
6010,-23.5,-30.06,-184.19,8.74,5.54,-2.83
6020,6.69,-64.44,-207.19,7.88,8.04,-3.92
6030,32.5,-73.5,-212.75,7.41,9.34,-4.52
6040,53.13,-80.81,-213.5,6.98,11.46,-5.52
6050,53.13,-80.81,-213.5,6.98,11.46,-5.52
6060,66.12,-93.37,-208.31,6.79,12.25,-6.36
6070,75.06,-121.19,-193.56,6.13,14.67,-8.5
6080,76.69,-133.12,-188.31,5.69,15.65,-8.97
6090,81,-140.19,-180.5,5.14,16.47,-9.66
6100,81,-140.19,-180.5,5.14,16.47,-9.66
6110,84.62,-147,-168.19,4.67,17.23,-10.66
6120,76.12,-126.56,-140.62,3.87,19.14,-12.64
6130,62.88,-120.5,-132.5,3.23,20.34,-12.86
6140,54.06,-110.69,-126.56,1.65,23.03,-12.35
6150,54.06,-110.69,-126.56,1.65,23.03,-12.35
6160,58.63,-97.06,-111.5,0.99,23.92,-12.27
6170,76.62,-85.5,-80,0.94,23.13,-13.12
6180,90.56,-77.62,-33.5,2.06,20.08,-13.38
6190,85.81,-75.69,12.63,2.06,19.34,-12.96
6200,60.94,-81.12,42.94,2.06,19.34,-12.96
6210,32.75,-95.94,53.31,1.48,19.48,-12.72
6220,26.75,-112.81,57.44,-0.31,19.68,-14.66
6230,44.81,-119.12,71.69,-0.28,18.4,-15.66
6240,61.5,-119.87,97.94,0.53,14.77,-17.18
6250,56.5,-124.87,131.19,0.53,14.77,-17.18
6260,30.44,-134.44,161.87,0.92,12.54,-17.6
6270,-5.37,-144.19,187.12,2.04,8.51,-18.34
6280,-39.25,-154.56,202.44,3.05,5.2,-19.27
6290,-64.19,-163.06,208.06,3.24,4.35,-19.37
6300,-76.56,-163.5,199.44,3.24,4.35,-19.37
6310,-75.5,-145.62,179.31,3.38,3.91,-18.64
6320,-60.38,-116.12,156.94,3.81,2.26,-16.24
6330,-33.25,-96.69,138.94,4.15,1.39,-16.46
6340,-7.56,-93.25,122.44,4.4,0.65,-17.15
6350,-1.06,-107,104.81,4.4,0.65,-17.15
6360,-17.37,-128.87,79.69,4.59,0.4,-18.22
6370,-40.69,-145.25,48.31,3.55,1.95,-17.69
6380,-45.63,-147.12,15.94,3.48,2.82,-17.42
6390,-18.87,-132.81,-8.06,3.34,2.82,-18.23
6400,27.06,-116.56,-21.75,3.34,2.82,-18.23
6410,67.56,-103.69,-38.38,3.31,2.57,-18.93
6420,67.56,-103.69,-38.38,2.93,3.27,-18.62
6430,50.38,-105.31,-52.06,2.33,3.97,-18.5
6440,30.5,-110.37,-68.06,1.94,4.6,-18.79
6450,20.19,-115.62,-80.25,1.94,4.6,-18.79
6460,10.19,-121.81,-94.12,1.44,5.44,-19.61
6470,10.19,-121.81,-94.12,0.65,5.82,-20.18
6480,7.94,-121.56,-95.81,0.72,5.2,-20.7
6490,12.5,-115.87,-94.44,0.72,4.56,-20.86
6500,23,-101.5,-90.69,0.72,4.56,-20.86
6510,29.31,-75.44,-95.56,0.8,4.15,-20.86
6520,29.31,-75.44,-95.56,0.1,3.96,-20.7
6530,20.06,-71.37,-106.12,-0.37,4.43,-21.04
6540,6.62,-75.5,-121.62,-0.92,5.1,-21.53
6550,-2.81,-81.5,-137.12,-0.92,5.1,-21.53
6560,-7,-83.62,-164.12,-2.56,6.97,-22.34
6570,-7,-83.62,-164.12,-4.32,8.46,-23.88
6580,7.69,-64.75,-163.31,-4.77,8.57,-24.76
6590,3.31,-42.81,-146.12,-4.62,7.36,-25.41
6600,-15.25,-15.75,-128.5,-4.62,7.36,-25.41
6610,-40.25,9.31,-120.94,-4.45,6.52,-24.96
6620,-40.25,9.31,-120.94,-5.82,7.61,-21.61
6630,-53.81,47.75,-143.37,-6.31,8.32,-21.46
6640,-29.19,57.63,-153.5,-6.89,9.14,-21.77
6650,-1.56,65.12,-161.81,-6.89,9.14,-21.77
6660,20.25,71.12,-164.94,-7.86,11.37,-22.82
6670,31.94,77.62,-157.5,-8,11.92,-23.77
6680,29.94,89.56,-148.62,-8.34,12.57,-24.48
6690,17.19,103.12,-137.06,-8.62,13.17,-24.84
6700,3.31,118.19,-125.62,-9.32,14.61,-24.61
6710,2.62,139.44,-109.25,-9.62,15.53,-23.98
6720,13.81,162,-81.37,-9.62,16.14,-23.4
6730,21.62,182.25,-45.06,-9.27,15.71,-22.51
6740,12.13,193,-6.44,-8.5,14.58,-22.18
6750,-21.56,193.62,25.5,-7.68,13.13,-21.93
6760,-67.62,191.44,46.13,-6.87,12.09,-21.2
6770,-96.69,193.56,61.13,-6.03,10.6,-18.06
6780,-94.56,196,71.69,-5.38,9.96,-16.54
6790,-70.75,194.69,77.87,-4.62,9.35,-15.51
6800,-40.69,192.81,79.81,-3.39,7.99,-14.34
6810,-15.5,191.5,75.31,-2.74,7.62,-13.84
6820,-0.31,187.25,68.25,-2.17,7.49,-13.24
6830,5.06,180.56,63.06,-1.71,7.46,-12.73
6840,2.69,172.19,60.88,-1.12,7.4,-11.4
6850,-3,160.69,59.25,-0.74,7.43,-10.61
6860,-6.62,142.69,58.06,-0.36,7.55,-9.79
6870,-9.94,118.69,58.13,0.43,7.4,-9.04
6880,-17.87,87.25,51.69,0.74,7.6,-8.95
6890,-26.81,52.31,38.69,0.89,8.22,-8.98
6900,-27.69,20.37,22.06,0.35,11.17,-9.77
6910,-15.5,-1.75,11.81,-0.07,13.11,-10.4
6920,8,-14.56,15.56,-0.49,14.73,-11.09
6930,28.56,-23.62,30.94,-0.87,15.95,-12.37
6940,32.38,-30.12,53.5,-1.1,17.87,-15.01
6950,17.37,-36.25,83.69,-1.11,18.37,-16.25
6960,-6.81,-36.81,119.44,-0.73,18.4,-17.06
6970,-26.5,-33.63,153,0.28,17.24,-17.52
6980,-35.88,-32.38,179.56,0.72,16.27,-17.85
6990,-37.25,-30.94,196.87,1.08,15.44,-18.13
7000,-32.31,-31,210.94,1.42,14.65,-18.28
7010,-25.25,-36.69,226.19,2.1,12.67,-19.85
7020,-25.06,-40.5,242.31,2.51,11.26,-21.09
7030,-37.19,-40.69,255.12,3.08,9.82,-22.17
7040,-61.69,-45.13,260.19,3.94,7.17,-24.19
7050,-92.62,-50.69,255.56,4.41,6.49,-25.12
7060,-118.31,-47.25,249.44,4.41,6.16,-25.92
7070,-130.25,-29.12,247.25,4.62,5.84,-26.33
7080,-127,3,248.69,5.45,4.8,-26.14
7090,-109.87,43.25,250.19,5.97,4.19,-25.2
7100,-83.5,82.37,250.94,6.46,3.48,-23.94
7110,-57.19,115.81,252.62,7.08,1.58,-21.22
7120,-42.06,138.69,254.69,7.43,0.38,-19.98
7130,-44.19,147.69,257.25,7.92,-0.98,-18.87
7140,-59.69,145.69,257.19,9.06,-3.91,-17.03
7150,-80.44,134.81,248.69,10.23,-5.49,-16.31
7160,-95.56,120.37,222.81,11.27,-6.67,-15.61
7170,-99.5,103.5,181.94,12.1,-7.47,-15.2
7180,-94.81,87.94,136,12.66,-8.01,-15.58
7190,-83.5,81.75,90.06,12.79,-7.96,-15.92
7200,-64.75,86.44,46.88,12.66,-7.42,-15.95
7210,-31.94,100.56,13,11.9,-5.8,-14.89
7220,11,114.37,-10.25,11.89,-5.26,-14.57
7230,46,124.37,-28.62,11.99,-4.98,-14.7
7240,59.75,134.19,-47.31,12.03,-4.67,-14.45
7250,57.06,141.75,-66.06,12.03,-3.76,-13.15
7260,45.56,146.44,-83.69,11.8,-2.95,-12.2
7270,30.44,145.62,-95.06,11.77,-2.01,-11.31
7280,16.37,137.19,-97.12,11.15,-0.78,-9.34
7290,13.5,128.5,-95.69,11.4,-0.5,-8.52
7300,17.19,117.5,-93.81,11.46,-0.63,-8.3
7310,16.12,108.12,-96.06,11.53,-0.8,-8.22
7320,12.31,104.44,-106.25,11.59,-1.19,-7.39
7330,14.06,103.19,-123.5,11.44,-0.86,-6.64
7340,22.12,100.19,-141.25,11.11,-0.48,-6
7350,30.12,93.94,-159.5,10.58,0.56,-4.94
7360,37.25,81.75,-178.25,10.03,1.45,-4.3
7370,45.94,63.13,-193.94,9.39,2.61,-3.83
7380,53.69,39.88,-202.37,8.47,4.49,-3.66
7390,56,11.31,-207.31,7.99,5.42,-4.03
7400,53,-16.75,-210.94,7.35,6.48,-4.6
7410,48.44,-34.69,-210.62,6.75,7.39,-5.18
7420,45.25,-46.63,-208.37,6.23,8.73,-5.78
7430,42.75,-56.56,-205.44,5.9,9.35,-6.16
7440,42.56,-64.19,-203.19,5.67,10.01,-6.21
7450,49.63,-72.69,-201.94,5.59,11.11,-6.71
7460,60.75,-79.87,-206.12,5.18,11.93,-7.18
7470,74.75,-85.62,-215.56,4.58,13.15,-7.67
7480,89.37,-91.69,-222.12,3.82,14.73,-8.29
7490,103.69,-95.37,-219.87,2.5,18.05,-9.49
7500,115.69,-92.12,-206.56,1.69,19.61,-10.26
7510,118.06,-85.37,-180.12,1.11,20.87,-10.95
7520,107.12,-82.69,-146.5,0.76,22.5,-11.67
7530,87.62,-87.5,-112,0.49,23.04,-12.17
7540,69.06,-90.56,-78.69,0.21,23.45,-12.5
7550,59.06,-91.06,-44.44,0.04,23.7,-12.71
7560,58,-87.12,-9.75,0.15,23.4,-13.35
7570,59.25,-76.31,24.75,0.37,22.55,-13.64
7580,56.31,-64.19,52.75,0.62,21.57,-13.47
7590,52.75,-59.31,75,0.8,20.12,-11.99
7600,52.81,-66,98.25,1.17,18.93,-12.03
7610,46.25,-78,119.06,1.52,17.49,-12.49
7620,32.31,-92.25,132.25,1.95,15.05,-12.65
7630,23.06,-106.25,138.5,1.94,14.06,-12.6
7640,27.87,-119.87,142.31,1.9,13.28,-12.74
7650,42.69,-134.69,148,1.77,12.34,-13.48
7660,56.94,-142.62,155.06,1.73,10.38,-15.68
7670,57.69,-145.94,163.5,1.65,9.04,-16.65
7680,40.44,-151.81,169.37,1.86,7.85,-17.38
7690,10.25,-161.56,174.5,2.59,5.36,-18.64
7700,-23.87,-171,173.19,2.81,4.25,-19.24
7710,-51.69,-169.94,165.12,3.15,3.27,-19.43
7720,-66.12,-161.25,150.94,3.5,2.43,-19.29
7730,-62.13,-145.69,131.81,3.96,1.16,-17.89
7740,-41.44,-132.25,110.75,4.16,0.64,-16.88
7750,-11.75,-128.62,86.56,4.12,0.17,-16.26
7760,13.25,-134,64.06,4.27,-0.36,-16.35
7770,20,-148.06,42.38,4.1,-0.67,-16.78
7780,11.56,-168.12,17.44,3.78,-0.83,-17.2
7790,5.19,-186.87,-10.31,3.26,-0.7,-17.59
7800,19.06,-190.69,-36.19,2.63,0.03,-18.1
7810,53.13,-180.25,-57.38,2.11,-0.05,-18.35
7820,94.37,-167.06,-79.12,1.4,-0.21,-18.48
7830,132.31,-164.37,-102.62,0.22,0.07,-19.38
7840,156.87,-169.44,-123.56,-0.79,0.57,-20.4
7850,162.06,-173.69,-138.06,-1.34,0.71,-21
7860,156.69,-176.69,-151.19,-2.53,2.31,-22.09
7870,147.62,-173.62,-152.69,-3.54,2.79,-22.81
7880,134.81,-164.44,-142.56,-4.04,2.98,-23.53
7890,117.5,-148.37,-125.94,-4.23,2.82,-24.08
7900,100,-124.06,-107.31,-3.94,2.13,-24.8
7910,80.06,-91.06,-87.81,-3.58,1.11,-24.69
7920,49.5,-61.13,-75.56,-3.35,0.06,-24.02
7930,8.81,-47.25,-73,-3.29,-1.09,-22.35
7940,-33.56,-47.63,-76.12,-3.31,-1.59,-21.81
7950,-69.19,-56.19,-87.5,-3.33,-1.72,-21.83
7960,-88.19,-58.38,-105.56,-3.44,-1.4,-21.89
7970,-80.37,-49.56,-125.19,-4.33,-0.32,-21.98
7980,-50.75,-31.69,-144.62,-4.98,0.47,-21.99
7990,-12,-12.38,-159.44,-5.57,1.26,-22.07
8000,18.5,4.19,-167.44,-6.84,2.36,-23.2
8010,25,18.37,-168.5,-7.22,2.64,-23.29
8020,13.44,26,-166.5,-7.6,2.79,-23.28
8030,-5.06,28.69,-165.75,-7.93,2.95,-23.43
8040,-27.69,28.75,-169.81,-8.71,3.58,-24.6
8050,-47.88,30.87,-180.62,-9.25,4.56,-24.82
8060,-49.25,39.19,-190.69,-9.96,5.95,-24.77
8070,-28.19,52.44,-190.5,-11.29,8.8,-25.23
8080,3.56,70.31,-177.62,-11.44,9.77,-25.96
8090,28.31,94.37,-154.62,-11.38,10.24,-26.75
8100,34.38,120.87,-128.19,-11.15,10.65,-27.32
8110,24.94,149.37,-100.56,-10.82,10.58,-26.86
8120,9.19,178.75,-71,-10.34,10.32,-25.69
8130,-3.56,204.62,-41.81,-9.7,9.71,-24.33
8140,-15.19,221.62,-16.06,-8.33,7.98,-21.4
8150,-25.69,231.94,4.31,-7.41,7.24,-20.11
8160,-33.31,237.69,19.44,-6.51,6.59,-18.74
8170,-37.94,235.81,30.94,-5.22,5.41,-16.42
8180,-42.25,227,38.75,-4.51,5.08,-15.62
8190,-44.5,214.56,46.31,-3.73,4.72,-15.06
8200,-49.44,199.87,55.06,-2.96,4,-14.93
8210,-58.44,188.5,55.44,-1.05,2.89,-14.31
8220,-58.13,188.06,37.63,-0.23,3.46,-12.98
8230,-29,194.62,1.75,-0.06,5.26,-11.4
8240,21.81,191.75,-31.31,-1.2,10.14,-9.49
8250,64.81,161.5,-45.13,-1.7,12.58,-9.82
8260,73.75,105.5,-33.63,-2.35,14.68,-11.06
8270,43.38,42,0,-2.88,16.22,-12.95
8280,-11.88,-9.5,48.44,-3.31,16.99,-16.99
8290,-69.25,-43.38,102,-3.07,16.15,-18.56
8300,-109.06,-55.88,149.75,-2.68,14.79,-19.67
8310,-125.81,-54.31,185.06,-1.5,11.61,-20.97
8320,-125,-47.06,205.62,-1.09,10.46,-21.57
8330,-116,-37.06,216,-0.75,9.62,-22.09
8340,-104.37,-26.44,223.44,-0.39,7.98,-22.99
8350,-94.81,-19,231.62,-0.14,7.15,-23.38
8360,-94.81,-19,231.62,0.43,6.18,-23.82
8370,-95.75,-15.44,242.12,0.5,5.32,-24.35
8380,-109.62,-14.81,236.56,2.01,4.51,-24.96
8390,-118.19,-15.88,232.31,2.12,3.87,-25.3
8400,-115.37,-13.25,221.81,2.25,3.9,-25.95
8410,-115.37,-13.25,221.81,2.38,4.59,-26.7
8420,-107.12,3.37,210.69,2.33,4.88,-26.42
8430,-80.75,74.81,215.12,2.53,4.67,-25.94
8440,-78.56,109.12,228.69,2.92,4.03,-24.77
8450,-84.62,133.31,240.25,3.94,2.16,-21.06
8460,-84.62,133.31,240.25,4.57,1.22,-19.29
8470,-87.06,146.25,247.25,5.44,0.41,-17.75
8480,-80.87,140.06,250.81,6.94,-1.64,-15.79
8490,-79,124.31,250.81,7.89,-3.11,-15.42
8500,-85.62,104.44,241.69,8.71,-4.6,-15.25
8510,-85.62,104.44,241.69,8.71,-4.6,-15.25
8520,-99.25,76.69,219.56,10.7,-7.98,-18
8530,-146.62,23.19,136,11.1,-7.71,-18.64
8540,-144.56,24.75,86.19,10.65,-6.37,-18.4
8550,-96.19,48.19,52.31,9.97,-3.98,-18.34
8560,-96.19,48.19,52.31,9.97,-3.98,-18.34
8570,-23.75,87.69,33.25,10.11,-3.39,-18.42
8580,50.81,152.56,10.38,10.12,-2.99,-16.78
8590,41.56,167.12,3.12,10.3,-2.99,-15.35
8600,21.56,170.31,-2.12,10.58,-3.2,-13.99
8610,21.56,170.31,-2.12,10.58,-3.2,-13.99
8620,-1.37,164.87,-9.19,10.98,-3.43,-12.85
8630,-32.56,142.62,-36.5,11.89,-3.5,-10.34
8640,-34.44,127.56,-50.81,11.44,-3.64,-9.52
8650,-23.81,111.06,-70.5,11.45,-2.99,-8.68
8660,-23.81,111.06,-70.5,11.45,-2.99,-8.68
8670,-1.19,102.12,-90.94,11.1,-2.43,-8.34
8680,31.87,81.37,-113.81,11.03,-1.5,-8.78
8690,31.94,75.56,-123.44,10.7,-1.03,-8.41
8700,30.44,69.25,-135.19,10.48,-0.49,-8.29
8710,30.44,69.25,-135.19,10.48,-0.49,-8.29
8720,29.5,66.06,-145.5,10.13,0.13,-7.89
8730,36.88,56.44,-161.44,9.32,1.85,-7.04
8740,38.94,51.5,-167.69,9,2.49,-6.74
8750,38.13,45.94,-170.69,8.68,2.91,-6.29
8760,38.13,45.94,-170.69,8.68,2.91,-6.29
8770,36.25,35.19,-172.81,8.28,3.29,-5.6
8780,32.31,2.37,-185.31,7.69,3.66,-5.26
8790,39.75,-13.13,-198.94,6.75,4.95,-4.88
8800,54.63,-30.62,-212,6.22,5.75,-5.16
8810,54.63,-30.62,-212,6.22,5.75,-5.16
8820,70.81,-49.25,-222.69,5.66,6.61,-5.9
8830,78.44,-68.5,-230.75,4.26,9.59,-8.91
8840,75.56,-78,-235.56,3.55,10.68,-9.05
8850,71,-79.12,-237.19,2.82,11.75,-9.18
8860,70.94,-78.37,-232.75,2.82,11.75,-9.18
8870,74.69,-80.62,-222.5,2.06,13.34,-9.98
8880,74.87,-86.44,-210.94,1.09,14.91,-11.22
8890,68.69,-87.75,-202.19,0.62,16.76,-11.37
8900,63.56,-88.19,-193.19,0.23,17.73,-11.75
8910,59.56,-95.12,-183.81,0.23,17.73,-11.75
8920,57.38,-102.81,-181.56,-0.4,19.16,-12.05
8930,60.56,-112.44,-181.94,-3.44,24.94,-14.11
8940,71,-124.37,-175.5,-4.49,26.69,-15.03
8950,87.37,-127.31,-155.25,-5.31,27.8,-16.12
8960,104.06,-121.5,-118.31,-5.31,27.8,-16.12
8970,111.81,-113.06,-69.69,-5.97,28.69,-18.16
8980,104.62,-102.94,-14.13,-5.94,27.44,-19.55
8990,88.69,-89.37,45,-5.36,25.91,-20.21
9000,68.87,-68.69,102.62,-3.97,21.48,-19.1
9010,43.88,-47.25,150.25,-3.97,21.48,-19.1
9020,22.75,-33.13,185.44,-3.23,19.35,-17.98
9030,10.88,-26.06,209.37,-1.78,14.4,-15.86
9040,5.06,-20.62,230,-1.27,12.28,-15.4
9050,1,-19.31,252.25,-0.52,10.19,-15.2
9060,-7.69,-27.87,270.06,-0.52,10.19,-15.2
9070,-24.56,-46.63,282.62,1.1,5.8,-15.79
9080,-48.56,-69.69,286,2.75,2.24,-16.33
9090,-73.81,-88.31,275.19,3.55,0.97,-16.16
9100,-90.44,-101.31,255.12,4.91,-1.05,-15.79
9110,-93,-109.81,228.06,4.91,-1.05,-15.79
9120,-81.5,-111.56,193.06,5.48,-1.63,-15.32
9130,-59.75,-113.37,152.31,6.23,-1.53,-14.46
9140,-32.19,-119.44,107.5,5.81,-0.96,-14.49
9150,-5.69,-128.06,65.87,5.39,-0.32,-15
9160,13.69,-140,33.81,5.39,-0.32,-15
9170,20.44,-151.56,12.06,4.9,0.3,-15.74
9180,13.25,-159.87,-2,4.15,1.19,-17.03
9190,2.94,-163.62,-12.94,3.81,1.3,-17.3
9200,-1.81,-164.44,-24.56,3.49,1.77,-17.84
9210,1.69,-161.44,-38.5,3.49,1.77,-17.84
9220,11.75,-154.25,-52.25,2.83,1.91,-18.23
9230,17.06,-148.87,-64.19,1.67,2,-18.56
9240,14.38,-146.31,-79.62,0.69,3.02,-18.55
9250,15.06,-148.37,-95.62,0.23,3.28,-19.02
9260,22.87,-151.81,-104.44,0.23,3.28,-19.02
9270,33.5,-148.62,-112.06,-0.12,3.5,-19.31
9280,42.94,-142.81,-116.19,-1.06,3.32,-20.53
9290,46.5,-137.75,-120.25,-1.4,2.95,-20.81
9300,41.75,-134.37,-125.94,-2.2,3.21,-20.69
9310,32,-132,-138.69,-2.2,3.21,-20.69
9320,26.87,-133.25,-155.44,-2.95,3.66,-20.6
9330,35.19,-139,-171.37,-4.69,4.84,-21.88
9340,55.19,-140.31,-183.19,-4.69,4.84,-21.88
9350,73.81,-133.75,-185,-5.92,5.71,-24.25
9360,76.06,-120.44,-176.06,-6.34,5.34,-25.49
9370,55.44,-103.5,-163.12,-6.59,4.78,-26.57
9380,17.5,-81.87,-154.25,-7.02,3.92,-27.52
9390,-22,-49.69,-151.06,-7.22,3.68,-27.12
9400,-50.25,-11.88,-155.62,-7.71,3.97,-25.8
9410,-53.81,23.87,-162.69,-8.26,4.62,-23.8
9420,-31.75,47.31,-167.25,-8.99,5.75,-22.19
9430,-7.31,58.88,-168.94,-9.37,6.12,-22.58
9440,1.37,65.87,-166.56,-9.57,6.49,-23.19
9450,-9,71.94,-160.25,-9.79,6.97,-24.21
9460,-31.06,83.81,-155,-9.99,7.4,-23.79
9470,-44.56,99.37,-151.12,-10.15,7.93,-23.15
9480,-38.81,116.69,-146.62,-10.24,8.42,-22.53
9490,-23.87,129.37,-140.06,-10.49,9.27,-22.18
9500,-14.88,133.87,-131.06,-10.54,9.63,-22.5
9510,-17.5,132.69,-116.62,-10.51,9.69,-22.98
9520,-28.87,131.12,-102,-10.04,9.43,-24.39
9530,-37.75,142.62,-93.31,-9.86,9.72,-23.95
9540,-27.37,167.44,-86.75,-9.64,9.99,-23.12
9550,5.37,194.12,-79.75,-9.43,10.31,-21.83
9560,42.31,213.69,-73.12,-9.25,10.45,-22.13
9570,52.63,225.44,-63.56,-9.29,10.66,-22.27
9580,26.62,230.12,-48.13,-9.14,11.14,-21.72
9590,-18.25,228.69,-20.37,-8.76,10.94,-18.74
9600,-57.25,223.25,13.63,-7.86,10.38,-17.06
9610,-72.87,215.94,47.25,-6.82,9.31,-15.85
9620,-69.75,213.19,71.87,-4.92,7.06,-14.2
9630,-61.69,213.69,84.37,-4.06,6.3,-13.39
9640,-59,211.75,86.19,-3.35,5.9,-12.53
9650,-61.31,204.62,81.44,-2.74,5.77,-11.34
9660,-60.13,193.56,73.62,-2.02,6.2,-8.64
9670,-48.25,177.81,65.5,-1.65,6.62,-7.6
9680,-29.81,159.12,59.38,-1.33,7.01,-6.71
9690,-12.25,138.56,56.44,-1.01,7.4,-6.06
9700,-2.56,116.37,54.19,-0.7,7.5,-5.94
9710,-3,83.06,47.19,-0.67,7.93,-6.02
9720,-5.25,39.25,38.38,-1,8.77,-6.27
9730,-3.31,-27.5,38.88,-1.86,11.09,-7.86
9740,9.69,-83.56,50.19,-2.55,11.96,-10.03
9750,22.94,-110.94,72.19,-3.02,12.29,-12.1
9760,25.37,-115.94,101.44,-3.11,11.77,-14.37
9770,19.81,-105.94,132.31,-2.9,10.81,-14.67
9780,14.06,-100.81,152,-2.52,10.01,-14.69
9790,15.63,-111.5,157.87,-2.15,9.73,-15.59
9800,25.87,-142.5,159.12,-2.49,9.85,-16.69
9810,39.63,-182,161.56,-2.7,10.25,-18.9
9820,51.69,-173.37,170.56,-3.11,10.51,-21.82
9830,38.44,-156.37,195.06,-3.03,9.58,-25.5
9840,7.25,-139.5,227.25,-2.67,8.35,-26.4
9850,-28.31,-123.37,255.56,-2.26,6.8,-26.83
9860,-58.38,-114.81,268.81,-1.07,4.54,-27.42
9870,-77.25,-110.69,266.94,-0.57,3.95,-27.86
9880,-86,-110.06,259.94,0.18,3.33,-28.67
9890,-92.56,-110.37,248.81,0.18,3.36,-30.25
9900,-104,-97.62,241.44,0.2,3.54,-32.62
9910,-116.31,-69.5,242.62,0.23,3.39,-33.07
9920,-123.94,-31.87,246.62,0.15,3.05,-32.98
9930,-122.81,10.31,249.56,0.57,1.88,-31.32
9940,-108.87,52.13,246.69,1.12,1.59,-29.91
9950,-82,93,237.62,1.75,1.34,-28.29
9960,-49.13,129,224.62,2.56,1.07,-26.57
9970,-21.87,151.12,210.31,3.57,0.52,-24.45
9980,-9.75,160.31,196.69,4.29,0.3,-23.94
9990,-16.06,162.06,186,4.76,0.02,-23.85
10000,-36.5,165.31,180.25,5.42,-0.91,-23.07
