timestamp,gyrox,gyroy,gyroz,accx,accy,accz
10,-1.62,-4.12,0.81,0,0,0
20,0.81,-1.94,0.19,0,0,0
30,-0.62,-4.31,0.06,0,0,0
40,0.25,-2.31,0.69,-0.43,-0.91,-19.66
50,0,-3.87,0.19,-0.35,-0.94,-19.34
60,0,-3.62,0.19,-0.46,-0.91,-19.49
70,0.62,-3,-0.37,-0.49,-0.95,-19.5
80,-6.12,-139.19,57.19,1.76,-8.83,-5.13
90,11.25,-117.06,29.19,2.73,-8.64,-4.33
100,30.75,-96.06,0.31,2.92,-7.84,-3.54
110,46.63,-83.62,-25.62,2.72,-6.51,-2.69
120,58.69,-83.06,-42.63,1.68,-4.32,-1.69
130,72.37,-90.69,-42.31,1.68,-4.89,-2.41
140,79.19,-99.37,-31.81,2.09,-6.15,-3.26
150,71.25,-105.5,-29.87,2.43,-7.71,-4.1
160,64.94,-103.5,-35.81,2.6,-8.43,-3.98
170,66.62,-96.12,-45.13,3.05,-9.2,-4
180,63.31,-94.56,-60.56,3.6,-9.78,-4.19
190,53.31,-97.94,-86.37,3.23,-8.75,-4.62
200,49.69,-97.06,-118.81,2.64,-7.51,-4.65
210,57.56,-89.87,-144.44,2.02,-6.32,-4.93
220,66.69,-81.19,-158.81,0.97,-4.77,-5.76
230,66.5,-74.31,-163.25,1.23,-4.78,-6.47
240,54.5,-70.31,-164.94,1.46,-4.83,-7.23
250,41.13,-63.63,-179.94,0.96,-3.74,-7.57
260,45.69,-46.25,-199.69,-0.67,-0.75,-8.12
270,67.81,-23.69,-210.19,-1.44,0.5,-8.93
280,80.69,-0.25,-211.75,-2.2,2,-9.26
290,73.75,21.31,-201.81,-2.89,3.61,-9.07
300,51.56,35.56,-186.19,-3.09,4.2,-8.73
310,32.06,41.5,-172.5,-3.29,4.73,-8.84
320,35.38,51.81,-160.5,-3.57,5.09,-9.51
330,53.13,75.44,-148.87,-4.39,5.71,-11.09
340,65.5,110.94,-134.62,-4.52,6.17,-11.26
350,54.56,154.06,-113.69,-4.73,5.86,-9.47
360,28.56,187.19,-93.69,-4.47,5.38,-4.58
370,9.75,206.12,-78.94,-4.55,5.12,-2.4
380,10,216,-65.75,-4.42,4.53,-1
390,13.44,218.44,-55.44,-4.09,3.7,1.7
400,10.69,216.75,-50.81,-4.3,3.7,3.02
410,7.37,211.19,-46.88,-4.42,3.58,4.1
420,-1.12,201.87,-41.19,-4.61,3.42,5.23
430,-16.69,186.94,-34.81,-4.56,3.2,7.74
440,-28.25,168.5,-28.19,-4.62,3.18,9.09
450,-25.37,143.44,-21.56,-4.5,3.03,9.87
460,-9,111.5,-14.38,-3.81,2.48,9.8
470,7.81,78.94,-14.69,-3.71,2.82,9.51
480,19.94,41.5,-19.94,-3.86,3.68,8.27
490,30.62,1.37,-24.06,-4.09,4.97,6.03
500,34.63,-29.44,-22,-4.24,6.85,0.78
510,30.06,-47.63,-16.19,-4.25,7.95,-1.59
520,25.69,-51.44,-11.5,-4.25,9.31,-3.68
530,27.19,-47,-0.19,-4.68,11.32,-7.87
540,26.25,-36.13,23.31,-4.51,11.58,-9.74
550,16.44,-23.25,57.25,-4.21,11.16,-11.76
560,-5.56,-1.62,93.56,-3.69,10.09,-13.38
570,-37.06,33.81,127.56,-2.04,6.44,-13.37
580,-65.31,75.87,151.06,-1.37,4.45,-11.75
590,-76.81,112.25,161.5,-0.77,2.72,-10.04
600,-70.81,134.75,160.25,0.35,0.7,-7.85
610,-58.88,142,149.06,0.6,0.43,-7.75
620,-48.69,141.5,134.56,0.53,0.41,-8.06
630,-41.63,143.56,122.75,-0.09,0.79,-8.39
640,-39.63,154.69,118.31,-0.4,0.49,-8.1
650,-49.88,171.12,121.75,-0.66,-0.11,-7.22
660,-73.31,188.25,128.62,-0.88,-0.81,-6.25
670,-103.31,203.56,132.62,-0.5,-2.13,-1.76
680,-122,218.44,132.62,-0.23,-2.15,1.04
690,-107.5,223.75,128.94,-1.22,-2.47,3.01
700,-64.94,228.12,123.44,-0.84,-2.32,7.08
710,-6.62,233.37,121.62,-0.06,-2.45,8.1
720,41.44,221.31,115.81,-1.69,-2.83,9.16
730,67.69,194.25,109.12,-0.9,-2.07,9.64
740,66.37,156.31,112.25,-0.36,-3.84,7.49
750,23.37,87.81,129.87,-0.06,-5.97,5.88
760,-37.31,-12.19,140.5,0.7,-7.71,2.93
770,-96.12,-90.31,135.44,0.95,-9.93,-3.1
780,-122.69,-63.88,107.37,0.63,-10.54,-3.12
790,-104.69,18.31,74.62,0.54,-11.01,-2.02
800,-74.06,98.75,42.06,0.03,-11.46,-0.06
810,-79.37,129.19,14.25,-0.48,-11.27,1.88
820,-121.12,105.12,-2.12,-0.55,-11.61,1.63
830,-162.37,68.37,-15.63,-0.68,-12.01,0.92
840,-175.69,48.25,-33.31,-0.82,-11.92,-0.29
850,-155.06,49.19,-57.44,-1.45,-11.02,-0.35
860,-106.44,65.31,-87,-3.07,-9.81,-0.18
870,-43.13,87.94,-109.44,-3.05,-8.04,0.68
880,3,100.12,-116.5,-3.14,-7.85,-0.08
890,10.88,90.19,-123.56,-3.51,-7.03,-0.54
900,-17,83.75,-131.87,-4.23,-6.13,0
910,-50.5,79,-135.56,-4.91,-4.86,2.7
920,-57,70.25,-135.62,-5.02,-4.76,3.44
930,-28.69,64.06,-138.44,-5.15,-4.64,3.58
940,15.94,66.44,-145.37,-5.17,-4.19,3.24
950,47.63,77.12,-157.56,-5.86,-4.04,3.22
960,48.31,85.25,-173.62,-6,-2.85,3.76
970,21.5,85.31,-186.81,-6.71,-2.08,4.59
980,-14.63,76.19,-190.44,-7.24,0.08,5.96
990,-43.25,65.87,-188.5,-7.59,0.55,6.22
1000,-61.44,57.19,-182.12,-7.68,0.9,6.7
1010,-67.69,40.5,-173.62,-7.92,1.6,9.09
1020,-53.44,9.25,-160.56,-7.66,1.59,9.42
1030,-22.69,-37.94,-145,-7.54,1.41,8.95
1040,8.88,-72.75,-132.94,-7.31,1.08,7.95
1050,26.19,-103.06,-127.87,-7.09,1.4,5.36
1060,26.44,-126,-133.19,-7.35,2.47,4.74
1070,23,-141.56,-139.5,-7.55,3.69,4.34
1080,29.44,-149.19,-132.31,-7.37,4.99,3.27
1090,47.94,-151.37,-112.5,-6.77,4.88,2.61
1100,64.37,-144.19,-90.94,-6.07,4.59,2.16
1110,65.12,-136.5,-75.31,-5.27,4.47,1.68
1120,53.5,-137.94,-71,-5.19,4.96,1.87
1130,38.56,-151.44,-74.37,-5.31,5.79,2.15
1140,30.87,-180.5,-79.25,-5.62,7.06,2.05
1150,41.5,-200.12,-77.56,-6.48,9.32,-0.27
1160,76.69,-182.81,-64.25,-6.46,10.04,-1.2
1170,123.37,-162.94,-38.94,-6.41,10.52,-3.09
1180,153.75,-132.37,-4.44,-6.13,10.5,-5.42
1190,147.19,-94.25,38.06,-5.69,9.68,-5.35
1200,101.44,-65.25,78.75,-5.49,8.76,-4
1210,44,-49.94,107.25,-5.62,8.07,-1.86
1220,16,-48,126.31,-6.07,6.78,0.53
1230,25.69,-51.56,142.37,-6.06,6.15,0.58
1240,46.31,-53.19,158.44,-5.93,5.61,0.53
1250,56.88,-53.88,176.56,-5.55,3.87,0.57
1260,52.25,-56.19,198.5,-5.16,2.75,0.62
1270,36.94,-62.13,219.44,-4.69,1.28,0.58
1280,8.5,-72.37,234.75,-4.16,-0.17,0.63
1290,-26.56,-85.94,239.12,-3.85,-2.63,1.95
1300,-49.5,-102.44,232.87,-3.72,-3.19,2.66
1310,-48.75,-126.25,221.37,-3.62,-3.53,2.47
1320,-31.87,-155.62,209,-3.38,-3.88,-0.74
1330,-14.94,-177.31,200.19,-3.2,-4.23,-2.19
1340,-5.12,-177,195.56,-3.22,-4.68,-2.87
1350,-2.06,-160.19,190.69,-2.48,-6.16,-2.94
1360,-4.06,-146.25,191.75,-1.82,-7.41,-3.02
1370,-16.31,-143.31,193.69,-1.06,-8.61,-3.01
1380,-35.69,-144.62,186.69,-0.17,-9.76,-2.82
1390,-51.94,-148,170.25,0.71,-11.57,-2.54
1400,-59.63,-146.44,142.5,0.94,-11.99,-2.07
1410,-60.69,-143.25,108.75,1.12,-12.22,-1.43
1420,-51.88,-143.44,75.31,1.23,-12.09,-0.52
1430,-30.37,-146.69,39.63,1.28,-11.63,-0.31
1440,0.25,-154.12,5.12,1.4,-10.99,-0.55
1450,37.19,-165.37,-23.75,1.44,-10.43,-1.33
1460,72.44,-171.5,-47.38,0.97,-8.96,-3.35
1470,92.81,-167.5,-65.06,0.91,-8.09,-3.66
1480,99.12,-159,-79,0.67,-7.24,-3.86
1490,100.19,-145.06,-81.25,1.21,-7.87,-3.78
1500,94.19,-133,-81.12,1.62,-8.5,-3.94
1510,73.12,-131.31,-85.87,1.81,-8.63,-4.18
1520,44.81,-138.44,-104.37,1.74,-7.91,-4.36
1530,30.81,-141.81,-127,1.01,-5.77,-5.32
1540,34.13,-140.25,-142,0.74,-5.11,-6.23
1550,36.94,-130.19,-152.06,0.69,-4.25,-7
1560,30.44,-114.44,-156.37,0.3,-3.54,-7.67
1570,19.75,-93.19,-158.31,0.21,-3.26,-7.38
1580,9.81,-69.81,-161.87,0.02,-3.04,-6.57
1590,3.94,-51.56,-168.12,-0.84,-2.41,-5.37
1600,6.37,-40.13,-174.62,-1.09,-2.02,-5.36
1610,12.94,-33.5,-179.94,-1.4,-1.56,-5.72
1620,15.25,-30.06,-185.94,-1.89,-1.03,-6.26
1630,10.63,-28.31,-191.31,-2.8,-0.08,-8.61
1640,-3,-28.87,-198.37,-3.58,1.13,-9.36
1650,-15.19,-20.81,-207.75,-4.37,2.66,-9.9
1660,-12.63,0.94,-208.62,-5.4,4.98,-11.15
1670,-6.5,34.56,-196.06,-5.59,5.67,-11.12
1680,-10.25,75.69,-174.19,-5.74,6.07,-10.44
1690,-24.56,117.87,-147.56,-5.76,6.16,-9.04
1700,-44,155.19,-118.81,-5.15,5.4,-5.39
1710,-61.88,183.81,-90.37,-4.68,4.37,-3.69
1720,-83.37,205.31,-67.12,-4.37,3.39,-1.43
1730,-103.25,222.56,-51.94,-3.2,2.03,4.1
1740,-105.25,231,-43.25,-2.87,1.31,6.33
1750,-87.75,223.75,-43.13,-2.68,1.04,7.87
1760,-60.75,203,-51,-2.69,1.1,8.77
1770,-36.19,173.06,-59.44,-2.76,1.74,9.45
1780,-23.31,136.31,-62.19,-2.84,1.91,9.39
1790,-23.19,96.06,-59,-2.87,2.08,9.13
1800,-23.19,96.06,-59,-2.92,2.83,8.41
1810,-28.81,60.13,-54.38,-2.92,2.91,7.6
1820,-20.5,17.56,-40.81,-2.84,2.87,6.44
1830,-13.38,11.75,-34.75,-3.15,3.34,5.62
1840,-10.06,9.13,-31.75,-3.36,3.64,4.81
1850,-10.06,9.13,-31.75,-3.46,4.06,3.55
1860,-3.69,-1.19,-29,-3.84,4.86,2.26
1870,19.06,-17.62,-34.31,-5.6,8.06,-0.13
1880,39.31,-18.94,-32.94,-5.94,9.36,-1.69
1890,58.5,-20.06,-9.13,-5.87,9.7,-3.9
1900,58.5,-20.06,-9.13,-5.09,9.01,-8.53
1910,60.31,-25.12,26.87,-5.1,8.89,-9.91
1920,24.75,-8.56,77.69,-5.08,8.87,-10.89
1930,20,17.5,97.56,-4.84,8.75,-11.51
1940,29.75,57.81,119.75,-3.87,6.74,-12.16
1950,29.75,57.81,119.75,-3.1,5.3,-12.15
1960,39.56,102.44,142.31,-2.56,3.96,-10.95
1970,1.75,179.94,164.87,-2.17,2.92,-6.39
1980,-10.31,200.31,164.44,-2.07,2.6,-4.97
1990,1.37,211.37,166,-1.99,1.7,-4.38
2000,1.37,211.37,166,-1.66,0.19,-4.1
2010,13,211.37,170.44,-1.87,-0.42,-3.82
2020,-12.38,205.06,173.31,-1.77,-1.26,-3.43
2030,-34.75,205.44,178.06,-1.44,-2.26,-3.11
2040,-59.38,208.44,179.81,-0.55,-3.89,-1.04
2050,-59.38,208.44,179.81,-0.4,-4.43,0.53
2060,-81.25,215.25,175.62,-0.4,-4.43,0.53
2070,-94,231.62,158.75,0.12,-5.23,6.23
2080,-91.81,226.87,146,0.57,-5.16,8.16
2090,-87.12,209,131.56,0.94,-4.78,9.73
2100,-87.12,209,131.56,0.94,-4.78,9.73
2110,-74.37,177.12,111.25,0.98,-4.07,10.91
2120,-21,68.12,77.75,1,-1.93,8.88
2130,1.56,5.06,75,0.87,-1.6,6.31
2140,7.94,-35.81,75.44,0.45,-1.94,1.82
2150,7.94,-35.81,75.44,0.45,-1.94,1.82
2160,1.25,-44.75,80.75,0.41,-2.86,0.21
2170,-59.38,-39.44,94.12,0.53,-5.14,-0.95
2180,-89.56,-46.13,93.19,0.7,-7.03,-2.82
2190,-95.62,-50.5,85.31,0.66,-8.22,-4.17
2200,-95.62,-50.5,85.31,0.66,-8.22,-4.17
2210,-86.81,-42.06,75.75,0.75,-9.56,-5.37
2220,-80.12,-28.12,59.31,-0.01,-10.38,-8.49
2230,-78.56,-15.06,32.44,-0.51,-9.96,-9.02
2240,-76.12,3.75,3,-1.1,-9.38,-8.08
2250,-66.25,39.94,-21.87,-1.1,-9.38,-8.08
2260,-51.88,84.25,-43.13,-1.47,-8.66,-6.84
2270,-38.19,121.25,-64,-2.02,-7.47,-4.17
2280,-26.87,147.87,-79.75,-2.52,-5.75,-0.93
2290,-18.31,167.5,-95.06,-3.37,-4.91,0.15
2300,-12.5,177.44,-108.62,-3.37,-4.91,0.15
2310,-6.5,175.87,-119.44,-3.07,-3.62,1.01
2320,3.12,171.37,-123.5,-3.68,-2.53,2.17
2330,13.88,165.62,-123.5,-3.94,-2.17,2.74
2340,17.25,161,-124.94,-4.17,-1.98,3.59
2350,10.56,158.69,-126.44,-4.17,-1.98,3.59
2360,5.19,148.75,-127.56,-4.53,-1.28,4.84
2370,10.44,133.06,-131.12,-4.82,-0.84,4.88
2380,21.37,117.69,-132.62,-4.8,0,4.42
2390,29.31,100.06,-133,-5.4,-0.01,3.95
2400,30.69,82.25,-131.75,-5.4,-0.01,3.95
2410,23.62,67,-126,-5.1,0.12,4.02
2420,14.06,59.38,-121.31,-5.06,0.22,4.46
2430,9.38,54.44,-116.31,-5.1,0.3,4.53
2440,4.19,50.5,-113.75,-5.1,0.43,4.74
2450,-5,43.06,-111.5,-5.1,0.43,4.74
2460,-18.12,34.88,-108.5,-5.16,0.46,5.19
2470,-34.63,25.37,-104.25,-5.07,0.2,5.93
2480,-53.75,9.31,-100,-4.78,-0.05,5.9
2490,-64.69,-14.19,-96.44,-4.62,-0.4,5.53
2500,-56.13,-33.81,-92.81,-4.62,-0.4,5.53
2510,-37.19,-45.75,-91.62,-4.55,-0.42,5.19
2520,-21.81,-53.81,-95.75,-4.47,-0.59,5.05
2530,-13.88,-61.19,-97.25,-4,-1.14,5.13
2540,-8.94,-70.25,-93.87,-3.69,-1.39,5.3
2550,-2,-78.81,-93.62,-3.69,-1.39,5.3
2560,12.44,-99.31,-114.94,-3.95,-0.11,5.85
2570,12.44,-99.31,-114.94,-4.31,1.48,4.97
2580,24.31,-119.31,-122.44,-4.32,2.14,4.06
2590,38.06,-141.5,-123.37,-4.46,3.4,1.57
2600,47.81,-159.19,-118.37,-4.46,3.4,1.57
2610,45.63,-172.56,-101.44,-4.5,4.02,0.63
2620,45.63,-172.56,-101.44,-3.8,4.02,-0.62
2630,36.56,-166.81,-84.25,-3.6,3.98,-0.52
2640,28.25,-155.94,-67.44,-3.43,4.55,0.1
2650,13.63,-147.62,-59.75,-3.43,4.55,0.1
2660,6.06,-141.94,-54.5,-3.29,5.16,0.61
2670,6.06,-141.94,-54.5,-3.44,6.95,0.68
2680,60.63,-142.25,-44.69,-3.74,7.65,0.13
2690,93.69,-140.5,-35.81,-4.19,8.61,-1.79
2700,107.5,-140.19,-22,-4.19,8.61,-1.79
2710,102.5,-142.81,-7.62,-4.63,9.34,-2.26
2720,102.5,-142.81,-7.62,-5.6,10.13,-3.09
2730,95.06,-144.69,13.63,-5.6,10.13,-3.09
2740,89.69,-144.37,44.38,-5.65,8.72,-4.58
2750,62.38,-125.44,104.62,-5.27,7.75,-5.14
2760,32.94,-110.12,127.31,-5.04,6.67,-5.15
2770,1.69,-97.75,145.31,-4.49,4.25,-3.84
2780,-22.69,-92.31,157.31,-4.04,3.19,-2.94
2790,-35.44,-91.44,163.31,-3.69,2.25,-2.2
2800,-36.94,-89.37,166,-3.22,0.59,-1.28
2810,-33.38,-85.94,167.06,-3.05,-0.15,-0.63
2820,-24.81,-85.81,165.69,-3.01,-0.76,0.02
2830,-9.56,-89.69,162.62,-2.9,-1.43,0.59
2840,8.56,-97.19,157.81,-2.72,-2.9,0.46
2850,21.31,-106.06,149.56,-2.44,-3.33,-0.16
2860,27.75,-107.69,139.75,-2.25,-3.54,-0.8
2870,32.88,-97.56,130,-1.94,-3.81,-0.96
2880,41.38,-82.19,121.69,-1.83,-3.79,-0.43
2890,50.06,-71.62,117.87,-1.62,-3.89,-0.02
2900,47.69,-68.75,118.31,-1.32,-4.34,0.15
2910,30.87,-72.75,114.94,-0.74,-5.87,0.25
2920,4.75,-82.5,107.62,-0.49,-6.43,0.52
2930,-17,-95.31,95.12,-0.18,-6.75,0.6
2940,-22.62,-101.44,80.19,-0.04,-6.88,0.59
2950,-15.06,-101.19,65,0.08,-6.86,0.87
2960,-0.06,-103,50.63,0.29,-6.8,0.86
2970,12.94,-107,37.06,0.49,-6.76,0.49
2980,20.37,-109.94,23.62,0.17,-6.39,-0.49
2990,24.81,-113.75,15.13,0.17,-6.25,-1.03
3000,28.25,-115.37,8.69,0.18,-6.15,-1.79
3010,26.94,-110.37,4,0.36,-6.43,-3.32
3020,17.75,-100.12,-2.75,0.76,-6.66,-3.51
3030,7.75,-90.19,-13.5,0.87,-6.84,-3.24
3040,3.06,-83.87,-24.5,0.85,-6.87,-2.43
3050,1.44,-86.81,-38.13,0.96,-6.8,-2.32
3060,5.87,-93.87,-52,0.87,-6.42,-2.69
3070,21.19,-94.5,-61.94,0.92,-6.11,-3.22
3080,44.06,-80.19,-70.94,1.17,-5.8,-4.36
3090,61.25,-56,-80.19,1.52,-5.84,-4.36
3100,62,-36.44,-91.19,1.73,-5.79,-3.7
3110,52.19,-32.13,-102.94,1.76,-5.06,-1.56
3120,44.75,-42.69,-115.37,1.71,-4.41,-1.07
3130,42.38,-59.81,-125.19,1.11,-3.65,-1.46
3140,37,-71.31,-128.12,0.89,-2.64,-2.41
3150,18.25,-74.94,-123.75,0.39,-2.19,-4.01
3160,-8.06,-74.37,-117.44,0.43,-2.48,-4.33
3170,-28.44,-68.37,-114.25,0.94,-3.29,-4.49
3180,-34.19,-62.81,-125.94,0.94,-4.33,-4.26
3190,-15.31,-59.56,-150.69,0.29,-3.67,-4.62
3200,24.5,-51.06,-175,-0.6,-2.34,-5.34
3210,65.25,-32.56,-186.87,-2.3,-0.06,-7.4
3220,81.62,-11.44,-184.81,-2.65,0.6,-8.34
3230,65.44,3.94,-178.19,-2.76,1.21,-8.93
3240,35.5,16.75,-173.06,-3.06,2.09,-9.16
3250,15.38,35.81,-164.5,-3.9,3.81,-8.91
3260,11.94,60.94,-151.94,-4.06,4.33,-8.66
3270,18.87,92.25,-138.25,-4.21,4.77,-8.26
3280,27.44,122.75,-122.87,-4.35,5.29,-6.14
3290,36.56,146.31,-106.94,-4.26,5.36,-4.98
3300,40.38,164.06,-91.5,-4.13,5.12,-4.11
3310,26,173.56,-77.37,-3.96,4.66,-3.28
3320,-1.62,173.06,-64.81,-3.55,3.83,-0.95
3330,-25.62,164.75,-54.56,-3.45,3.55,-0.17
3340,-36.44,156.12,-47.13,-3.44,3.25,0.2
3350,-36.94,151.81,-42.63,-3.21,2.78,0
3360,-34.63,152,-41.69,-3.3,2.58,-0.34
3370,-31.25,153.94,-44.13,-3.48,2.55,-0.68
3380,-20.75,160.37,-47.88,-4,2.93,-0.71
3390,-4.5,165.37,-49.88,-4.5,4.04,-0.41
3400,11.69,166.75,-47.69,-4.58,4.76,-0.21
3410,25.81,163.12,-41.69,-4.58,5.45,-0.02
3420,30.94,150.06,-33.44,-4.44,6.72,-0.62
3430,25.94,133.44,-20.75,-4.54,7.43,-1.52
3440,13.75,119.94,-3.69,-4.74,7.99,-2.66
3450,-0.94,114,18.31,-4.5,8.16,-4.98
3460,-13.19,121.69,39.19,-4.45,8.14,-5.59
3470,-15.25,141.94,57.5,-4.53,8.19,-5.56
3480,-5.69,167,78.87,-4.41,7.73,-5.2
3490,-3.37,185.81,97.06,-3.37,5.54,-3.83
3500,-20.87,192,109.87,-2.99,4.61,-3.08
3510,-54.81,186.25,120,-2.65,3.65,-2.52
3520,-90.25,175.56,125.69,-2,2.17,-0.73
3530,-111.5,163.5,126.31,-1.96,1.83,-0.32
3540,-117.25,155.44,123.87,-1.88,1.7,-0.02
3550,-113.87,152.19,121.06,-1.93,1.7,0.07
3560,-109.19,154.37,121.12,-2.01,2.15,0.2
3570,-112.94,158.5,127.5,-2.07,2,-0.07
3580,-129.69,163.75,135.31,-2.07,1.87,-0.01
3590,-147.37,169.5,143.56,-1.94,1.22,1.78
3600,-151.62,172.44,150.37,-2.09,0.87,2.77
3610,-136.62,173.81,155.81,-2.29,0.42,3.65
3620,-106.94,176.06,160.31,-2.34,-0.12,4.22
3630,-74.25,181.87,159.87,-1.37,-2.02,5.49
3640,-42.5,192.12,144,-1.39,-2.39,6.46
3650,-10.31,203.06,116.06,-1.59,-2.01,7.67
3660,22.12,209.94,93.69,-2.79,0.02,9.73
3670,51.31,223.94,91.44,-3.87,0.69,9.27
3680,59.88,173.81,118.5,-3.85,0.39,11.1
3690,42.5,41.06,153.81,-2.55,-2.95,8.8
3700,1.62,-69.06,177.81,-1.33,-5.23,5.54
3710,-57.38,-180.37,180.87,-0.79,-6.72,2.09
3720,-107.37,-304.31,176.31,-1.19,-7.28,1.39
3730,-112.75,-261.5,133.19,-0.17,-8.28,-6.68
3740,-115.56,-191.56,101.94,-0.03,-9.04,-8.32
3750,-124.37,-138.69,72.94,0.41,-9.39,-9.24
3760,-128.81,-86.31,40.88,-0.52,-8.3,-9.71
3770,-119.25,-42.25,15.31,-1.09,-7.45,-9.68
3780,-93.69,0.5,3.62,-1.53,-7.07,-9.59
3790,-66.75,40.81,-0.44,-1.79,-7.39,-9.31
3800,-50.06,70.87,-9.13,-0.82,-8.09,-7.51
3810,-38.38,91.44,-26.56,-0.91,-7.53,-6.22
3820,-17.5,108,-41.69,-1.11,-6.84,-5.14
3830,3,123.87,-53.75,-1.13,-6.33,-3.87
3840,9.56,135.37,-68.31,-1.36,-5.99,-2.92
3850,8.19,138.56,-83.37,-1.82,-5.35,-1.76
3860,11.75,137.19,-93.31,-2.34,-4.47,-0.78
3870,20.44,132.31,-94.5,-2.94,-3.49,0.93
3880,28.69,122.69,-92.31,-2.98,-3.58,1.25
3890,29.75,109.19,-93,-2.95,-3.78,1.38
3900,25.62,97.06,-97.62,-2.93,-3.95,1.97
3910,25.37,89.62,-105.06,-3.01,-4.01,2.29
3920,31.62,84.44,-113.44,-3.23,-4.07,2.56
3930,43.44,78.5,-121.75,-3.3,-4.11,2.78
3940,54.88,72.44,-132.37,-3.4,-3.96,3.08
3950,63.38,65.31,-146.75,-3.67,-3.52,3.13
3960,69.06,54.56,-159.69,-4.06,-2.91,3.04
3970,73.31,45.44,-167.31,-4.86,-1.18,2.96
3980,75.37,37.06,-166.5,-4.94,-0.65,2.75
3990,71.94,29.62,-159,-4.9,-0.51,2.45
4000,58.44,25.44,-151.37,-4.68,-0.37,2.38
4010,36.44,21.75,-146.56,-4.56,-0.45,2.8
4020,16,17.87,-145.44,-4.43,-0.46,3.43
4030,2.44,9.88,-147.5,-4.43,-0.46,3.99
4040,-1.12,-2.44,-152.87,-4.88,0.46,4.9
4050,5.06,-16.94,-154.81,-5.26,1.02,5.18
4060,18.44,-33.31,-147.25,-5.47,1.5,5.17
4070,29.81,-46.38,-131.31,-5.33,1.51,4.24
4080,25.87,-55.38,-115.12,-5,1.14,4.03
4090,6.87,-64.5,-104.69,-4.58,0.87,4
4100,-17.62,-73.75,-101.12,-4.34,0.73,4.35
4110,-37,-87.69,-103,-4.17,1.08,5.42
4120,-44.44,-108.37,-106.81,-4.18,1.26,5.61
4130,-42.88,-132.19,-112.5,-4.18,1.55,5.53
4140,-32.69,-156.37,-117.87,-4.7,3.16,4.45
4150,-15.25,-176.56,-117.56,-4.87,3.83,3.56
4160,8,-188.94,-111.06,-4.96,4.48,2.82
4170,37.69,-192.19,-100,-5.12,4.99,0.12
4180,63.25,-183.44,-90.19,-4.96,5.23,-0.91
4190,78.94,-165.12,-83.75,-4.91,5.84,-1.62
4200,88.87,-141.19,-72.94,-4.9,6.49,-2.05
4210,94.69,-116.25,-54,-5.23,7.81,-2.05
4220,96.56,-97.31,-28.94,-5.07,8.19,-1.95
4230,91.12,-86.5,1,-4.65,8.21,-1.85
4240,77.87,-83.44,27.25,-4.19,7.18,-2.09
4250,62.63,-82.25,43.19,-4.06,7.09,-1.89
4260,54.94,-79.87,54.56,-4.25,7.19,-1.55
4270,55.88,-76.75,64.69,-4.49,7.41,-1.42
4280,56.44,-75.5,78.31,-5.29,7.79,-1.75
4290,52.13,-75.37,98.94,-5.43,7.84,-1.74
4300,45.88,-75.12,128,-5.13,7.3,-1.92
4310,29.69,-76.37,158.75,-4.03,4.23,-2.12
4320,2.87,-81.62,178.5,-3.44,2.82,-1.87
4330,-22.5,-89.56,185.75,-3.05,1.63,-1.49
4340,-35.31,-98.06,183.12,-3.17,0.92,-0.91
4350,-28.87,-108.25,176.87,-3.1,-0.05,-0.45
4360,-10,-118.31,167.94,-3.25,-0.01,-0.74
4370,14.31,-123.06,160.69,-3.42,0.36,-1.38
4380,35,-120.12,165.37,-3.54,-0.2,-2.93
4390,38.94,-113,175.31,-3.04,-0.98,-3.35
4400,25.12,-104,181.19,-2.5,-1.8,-3.25
4410,25.12,-104,181.19,-1.86,-3.08,-1.74
4420,6,-97.69,179.5,-1.53,-3.63,-1.23
4430,-2.81,-99.25,168,-1.25,-4.17,-0.84
4440,2.12,-101.56,159.37,-0.91,-4.74,-0.44
4450,8.31,-105.75,149,-0.48,-5.7,0.3
4460,8.31,-105.75,149,-0.21,-6.21,0.44
4470,11.75,-113.87,139.44,0.09,-6.81,0.4
4480,-0.31,-139.19,114.19,0.39,-7.58,-0.05
4490,-8.81,-149.25,94.62,0.47,-7.66,-0.28
4500,-11.5,-154.06,74.37,0.55,-7.67,-0.52
4510,-11.5,-154.06,74.37,0.68,-7.55,-0.77
4520,-8,-151.31,54.94,0.69,-7.46,-1.28
4530,-6.56,-140.62,25.44,0.94,-7.68,-1.42
4540,-17.19,-136.87,10.94,1.17,-8,-1.12
4550,-28.19,-140.94,-9.25,1.31,-7.87,-0.53
4560,-28.19,-140.94,-9.25,1.31,-7.87,-0.53
4570,-26,-147.87,-34.44,0.83,-6.31,-1.46
4580,10.19,-140.56,-70.44,0.66,-5.64,-2
4590,27.25,-124.56,-75.94,0.74,-5.19,-2.76
4600,28,-111.75,-76.56,0.93,-5.68,-3.06
4610,28,-111.75,-76.56,0.93,-5.68,-3.06
4620,11.06,-105.12,-82.75,1.13,-5.94,-2.98
4630,-10.38,-96.37,-104.75,1.27,-5.72,-2.14
4640,-0.56,-91.44,-118.31,1.19,-5.15,-2.05
4650,15.56,-87,-127.12,0.96,-4.3,-2.98
4660,15.56,-87,-127.12,0.96,-4.3,-2.98
4670,24.5,-85.25,-133.69,0.76,-3.3,-4
4680,23.37,-71.94,-134.69,0.68,-3.13,-4.24
4690,16.19,-62.75,-130.62,0.75,-3.46,-4.53
4700,2.62,-54.69,-128.06,0.77,-3.88,-4.6
4710,2.62,-54.69,-128.06,0.77,-3.88,-4.6
4720,-16.69,-49.25,-129.87,0.68,-4.25,-4.53
4730,-35.88,-41.44,-143.75,0.07,-4.62,-4.74
4740,-34.31,-38.31,-156.44,-0.21,-4.35,-5.18
4750,-23.44,-24.62,-171.56,-0.67,-3.71,-5.68
4760,-23.44,-24.62,-171.56,-0.67,-3.71,-5.68
4770,-9.44,-0.56,-180.31,-1.71,-2.49,-5.73
4780,0.62,37.63,-187,-2.39,-1.49,-5.21
4790,2.37,50.38,-194.44,-3.13,0.53,-4.21
4800,9.75,55.56,-205.56,-3.82,2.14,-3.92
4810,9.75,55.56,-205.56,-3.82,2.14,-3.92
4820,27.06,54.63,-212.69,-4.62,3.97,-4.16
4830,49.56,54.19,-208.56,-6.25,8.11,-7.22
4840,65.44,59.25,-194.62,-6.54,8.98,-8.08
4850,63.56,76.69,-169.87,-6.74,9.44,-8.33
4860,40.25,103.56,-136.62,-6.74,9.44,-8.33
4870,2.37,133.31,-98.37,-6.56,8.94,-6.49
4880,-38.81,158.5,-60.13,-5.88,6.92,-2.83
4890,-69.19,176.94,-29.75,-4.75,4.89,0.66
4900,-79,189.62,-9.31,-4.35,4.05,2.24
4910,-77.69,195.56,2.62,-4.35,4.05,2.24
4920,-71.87,193.87,7.87,-4.12,3.49,3.71
4930,-58.56,184.5,8.25,-3.54,2.98,6.31
4940,-40.31,168.31,10.44,-3.29,2.59,6.3
4950,-26.06,145.94,15.38,-3,2.08,6.24
4960,-24.06,120.87,19.37,-3,2.08,6.24
4970,-29.94,96.12,18.87,-2.89,2.05,6.44
4980,-28.81,73.37,19.06,-2.68,1.96,5.14
4990,-19.94,51.56,21.75,-2.59,2.17,3.6
5000,-14.38,29.87,20.5,-3.09,4.08,0.83
5010,-9.63,16.56,17.81,-3.09,4.08,0.83
5020,3.37,13.31,21.37,-3.02,4.81,-0.72
5030,14.56,19.62,29.87,-2.5,5.87,-3.74
5040,14.31,29.25,39.31,-2.24,6.05,-4.51
5050,0.13,31.75,51.13,-1.96,6.07,-5.61
5060,-24.06,22.31,63.13,-1.96,6.07,-5.61
5070,-46,13.75,72.25,-1.84,6.13,-6.75
5080,-53.94,19.56,80.81,-2.28,6.41,-9.37
5090,-49.56,38.94,94.44,-2.58,6.11,-10.24
5100,-45.5,68.87,113,-2.89,4.39,-10.32
5110,-55.25,105.94,135.06,-2.89,4.39,-10.32
5120,-80,143.81,159.87,-2.86,2.93,-9.12
5130,-112.44,171.12,180.37,-1.9,-1.74,-4.59
5140,-141.12,183.31,195.87,-1.38,-3.02,-3.71
5150,-160.37,187.5,204.75,-1.21,-4.19,-2.98
5160,-170,189.75,204.19,-1.21,-4.19,-2.98
5170,-169.81,193.19,192.75,-0.36,-4.65,-2.06
5180,-155.87,199.31,174.31,-0.64,-4.51,0.75
5190,-127.56,210.19,154.69,-0.67,-4.28,1.45
5200,-96.75,220.5,137,-0.82,-3.44,3.91
5210,-75.31,230.62,119.75,-0.82,-3.44,3.91
5220,-64.12,236.12,103.62,-1.04,-2.78,4.95
5230,-61,238.87,92.62,-1.41,-1.64,7.72
5240,-62.88,237.06,84.69,-1.7,-0.82,10.73
5250,-57.56,233.56,78.5,-2.39,-0.54,10.74
5260,-33.75,247.25,72.25,-2.39,-0.54,10.74
5270,-6.81,243.5,74.12,-2.75,-0.02,14.06
5280,14.19,117.12,87.06,-2.37,-0.8,11.45
5290,30.06,7.62,103.75,-1.77,-1.86,6.51
5300,16,-110.44,121.56,-1.47,-2.67,2.29
5310,-21.94,-198.12,132.25,-1.47,-2.67,2.29
5320,-53.94,-295.94,150.25,-0.36,-5.09,-2.17
5330,-48.13,-266.44,140.81,-0.79,-8.23,-8.71
5340,-46.81,-186.31,129,-0.32,-10.2,-11.66
5350,-74.81,-139.75,108.25,-0.49,-10.42,-11.95
5360,-108.19,-85.94,80.44,-0.49,-10.42,-11.95
5370,-121.87,-35,47.06,-0.59,-10.08,-11.74
5380,-102.81,25.37,16,-1,-9.25,-9.46
5390,-60.31,83.69,-8.94,-1.52,-8.98,-7.52
5400,-10.69,126.31,-34.44,-1.11,-8.14,-5.61
5410,31.81,149.75,-58.19,-1.78,-7.4,-4.09
5420,57.19,154.19,-75.81,-2.03,-5.48,-2.37
5430,63.25,151.75,-83.87,-2.18,-5.09,-1.61
5440,57,145.62,-87.19,-2.21,-4.94,-0.82
5450,49.69,137.81,-91.75,-2.44,-4.54,0.73
5460,47,130.5,-96.5,-2.67,-4.58,1.21
5470,46.19,122.56,-102.37,-2.8,-4.64,1.49
5480,42.06,114.44,-109.69,-2.86,-4.73,1.8
5490,34.06,106.31,-119.37,-2.85,-4.75,2.5
5500,23.81,98.31,-132.94,-3.35,-4.53,2.81
5510,17.37,91.37,-148.12,-3.36,-3.87,3.34
5520,21.31,84.87,-159.62,-4.19,-2.58,4.18
5530,32.88,75.56,-169.62,-4.7,-1.71,4.31
5540,48.31,64.81,-171.75,-4.96,-1.09,4.41
5550,63.69,54.13,-165.37,-5.1,-0.79,4.45
5560,72.69,43.75,-155.44,-5.03,-0.82,4.4
5570,69.87,32.25,-147.12,-4.85,-1.24,4.38
5580,55.38,18.37,-146.19,-4.76,-1.47,4.48
5590,37.13,4.19,-154.5,-5.26,-0.48,5.42
5600,27.25,-13.88,-163.19,-5.67,0.25,5.78
5610,30.75,-36.69,-166.25,-5.95,1.07,5.75
5620,41.19,-60.81,-160.19,-6.3,2.66,4.34
5630,47.88,-81.62,-146.75,-6.24,3.02,3.51
5640,43.19,-95.62,-129.31,-6.06,3.16,2.93
5650,30.87,-102.44,-110.19,-5.76,3.02,2.63
5660,15.94,-102.69,-93.06,-5.1,2.46,2.51
5670,2.06,-100.06,-80.5,-4.7,1.91,3.03
5680,-8.31,-102.12,-75.19,-4.15,1.47,3.4
5690,-16.56,-110.87,-78.5,-3.99,1.52,3.82
5700,-18.81,-123.25,-89.56,-4.08,2.17,3.91
5710,-9.5,-136.69,-99.12,-4.23,2.94,3.92
5720,12.69,-151.87,-100.94,-4.18,3.54,3.16
5730,35.44,-161.25,-99.19,-4.46,5.1,0.64
5740,53.94,-158.81,-91.87,-4.52,5.77,-0.26
5750,65.25,-144.44,-78.81,-4.54,6.31,-1.02
5760,66.69,-125.06,-62,-4.6,7.08,-1.33
5770,66.81,-106.44,-49.75,-4.83,7.86,-0.78
5780,72.62,-96.44,-36.5,-5.02,8.61,-0.42
5790,83.12,-102.94,-18.81,-5.01,9.22,-0.9
5800,94.19,-111.69,2.31,-5.05,9.71,-3.12
5810,103.25,-107.31,25.87,-5.02,9.74,-4.18
5820,101.69,-85.81,53.13,-5.18,9.62,-4.75
5830,81.87,-60.56,84.06,-5.24,8.35,-3.69
5840,47.31,-45.88,115.37,-5.09,7.4,-2.27
5850,14.63,-47.13,143.25,-4.85,6.21,-1.01
5860,-1.81,-59.13,163.81,-4.23,4,0.03
5870,-4.06,-73.12,177.31,-3.76,3.17,-0.04
5880,0.31,-85.75,186.06,-3.25,2.43,-0.19
5890,5.87,-96,193.06,-2.98,1.5,-0.6
5900,9.56,-103,198.75,-2.32,-0.75,-1.51
5910,8.63,-108.06,200.19,-2.27,-1.72,-1.87
5920,-0.19,-108.06,194.31,-2.16,-2.3,-1.84
5930,-5.12,-105,185.25,-2.23,-2.95,-1.02
5940,0.56,-100.37,176.31,-2.29,-3.02,-0.56
5950,13.19,-92.69,170.94,-2.15,-3.26,0.12
5960,22.62,-88.5,170.06,-1.88,-3.55,0.73
5970,19.19,-95.87,173.94,-1.29,-5.36,1.1
5980,1.37,-114.25,179.5,-0.97,-6.7,0.88
5990,-25,-140.94,181.12,-0.38,-8.31,0.16
6000,-49.81,-166,169.12,1.02,-10.59,-1.54
6010,-60.31,-170.31,139.06,1.57,-10.89,-1.68
6020,-49.38,-152.19,97.75,1.85,-10.67,-1.25
6030,-17.81,-122.62,55.38,1.71,-9.85,-0.22
6040,25.06,-96.25,23.81,1.07,-8.12,2.61
6050,57.5,-87.5,8.31,0.87,-7.84,3.58
6060,59.88,-106.25,2,0.61,-7.9,4.08
6070,34.5,-148.81,-2.19,0.22,-8.57,2.82
6080,-0.44,-189.87,-10.75,-0.02,-8.66,1.79
6090,-23.44,-215.62,-22.31,-0.07,-8.65,0.99
6100,-24.12,-226.81,-34,-0.02,-9.11,-1.08
6110,-12.94,-224.25,-47.19,0.22,-9.7,-2.23
6120,-8.63,-220.62,-65.5,0.57,-9.82,-3.48
6130,-14.31,-212.37,-94.19,0.52,-9.63,-4.36
6140,-17.81,-202.62,-129.5,-0.49,-7.05,-5.22
6150,0.75,-184.75,-162.06,-1.19,-5.06,-5.3
6160,45.81,-154.94,-177.75,-1.68,-3.56,-5.8
6170,87.44,-123.31,-172.87,-1.88,-2.27,-8.21
6180,92.12,-94.87,-157.19,-1.08,-2.62,-9.13
6190,47.63,-69.31,-142.75,-0.96,-2.88,-8.49
6200,-14,-56.06,-140.87,-0.82,-2.36,-7.06
6210,-43.5,-49.75,-141.62,-1.16,-2.15,-5.34
6220,-36.25,-41.69,-146.56,-1.36,-2.08,-5.41
6230,-19.31,-32.88,-152.06,-1.38,-2.1,-6.16
6240,-17.94,-26.06,-158.06,-1.87,-1.98,-7.71
6250,-24.56,-15.69,-167.69,-2.08,-1.66,-7.69
6260,-10.63,-1.69,-180.75,-2.37,-1.02,-7.9
6270,29.19,23.81,-196,-2.92,-0.01,-8.14
6280,74.06,55.25,-204.75,-3.89,2,-8.77
6290,93.31,78.94,-205.25,-4.42,3.27,-9.04
6300,73.44,90.94,-197.44,-4.94,4.59,-8.98
6310,27.69,98.06,-177.25,-5.45,6.39,-8.1
6320,-20.25,111.5,-143.12,-5.09,6.02,-7.02
6330,-57.56,133.5,-105.31,-4.43,4.76,-5.34
6340,-78.62,155.19,-80.94,-3.64,3.36,-3.34
6350,-82,167.75,-75.12,-2.74,2.13,0.54
6360,-69.19,167.62,-82.5,-2.9,2.52,1.81
6370,-46.25,157.5,-91.87,-3.29,3.26,2.49
6380,-29.69,140.31,-92,-3.5,4.32,2.16
6390,-30.81,121.62,-81.19,-3.52,4.26,1.67
6400,-49.25,109.94,-63.88,-3.32,3.69,1.4
6410,-74.31,108.5,-46.06,-2.33,1.36,2.66
6420,-96,112.69,-35.75,-1.96,0.34,3.99
6430,-103.12,115.69,-36.56,-1.64,-0.29,5.25
6440,-88.81,115.62,-46.94,-1.91,-0.25,6.66
6450,-50.63,108,-61.38,-2.85,1.99,8.04
6460,-2.25,86.75,-62.75,-3.18,2.72,6.77
6470,23.19,58.63,-51.38,-3.19,3.04,4.7
6480,12.75,40.5,-36.63,-3.19,3.29,2.06
6490,-13.19,34.69,-24.75,-3.33,3.54,1.99
6500,-29.81,36.69,-14,-3.43,3.43,1.99
6510,-33.63,33.56,-5.56,-3.35,3.2,1.68
6520,-27.62,25.19,-6.44,-3.73,4.22,0
6530,-7.87,19.56,-13.5,-4.27,5.59,-1.43
6540,21.62,21.31,-14.44,-4.65,6.98,-2.83
6550,53.81,34.88,-4.56,-5.01,9.06,-5.13
6560,77.12,58.69,18.31,-4.9,9.24,-6.1
6570,75.25,76.75,49.19,-4.62,8.82,-7.21
6580,46.25,88.12,78.5,-4.4,8.2,-7.98
6590,16.25,99.69,101,-4.33,7.5,-8.33
6600,13.88,123.87,116.87,-4.6,7.49,-7.92
6610,39.5,162.87,134.31,-4.99,6.95,-7.59
6620,58.13,198.75,152.62,-4.9,5.16,-6
6630,49.13,227.12,173.25,-4.75,3.92,-4.91
6640,14.88,243.06,194,-4.36,2.63,-3.5
6650,-27.56,251.69,208.56,-3.25,0.74,1.23
6660,-51.5,249.69,211.56,-2.93,0.55,3.13
6670,-46.06,236.56,206.69,-2.51,0.46,4.3
6680,-26.31,216.06,200.19,-2.02,0.32,4.5
6690,-19.37,198.25,194.81,-0.75,-0.67,4.39
6700,-42.63,181.19,188.56,-0.53,-0.78,5.18
6710,-82,152.25,178.19,-0.68,-0.42,6.48
6720,-99.19,107.81,170.62,-0.77,0.46,7.92
6730,-74.37,58.13,172.81,-0.54,-0.07,6.44
6740,-37.63,21.5,182.19,-0.22,-1.34,3.95
6750,-33.5,-1.19,191.62,0.33,-3.01,1.64
6760,-72.62,-14.56,192.94,0.82,-5.83,0.12
6770,-128.19,-39.44,187.44,0.89,-6.65,-0.54
6780,-168.06,-78.81,177.69,0.9,-7.34,-2.04
6790,-173.44,-107.19,164.31,0.74,-8.48,-6.79
6800,-155.56,-116.62,147.56,1.16,-9.07,-9.77
6810,-149.81,-90.5,130.94,1.26,-9.64,-11.71
6820,-163.12,-44,112.44,0.95,-10.09,-12.35
6830,-175.31,10.94,90.31,0.61,-10.02,-11.12
6840,-164.31,71.25,65.62,0.2,-9.84,-9.18
6850,-126.62,125.37,42.69,0,-9.92,-6.97
6860,-79.37,159.25,17.25,0.15,-9.48,-3.91
6870,-41.56,175.06,-13.31,-0.28,-8.49,-2.86
6880,-16.94,177.37,-38.5,-0.69,-7.5,-2.24
6890,-5.44,172.37,-52.56,-1.34,-6.15,-1.31
6900,-7.37,168.19,-60.75,-1.74,-5.76,-0.88
6910,-16.44,163.87,-64,-1.85,-5.77,-0.69
6920,-29.06,161.19,-65.62,-1.96,-6.08,-0.65
6930,-43.5,164.81,-73.75,-2.35,-5.6,1.06
6940,-47.5,176.19,-92.81,-3.34,-4.35,2.61
6950,-29.94,184.19,-104.5,-3.72,-3.59,3.79
6960,1.12,176.31,-101.25,-3.7,-3.9,4.16
6970,1.12,176.31,-101.25,-3.65,-4.33,3.62
6980,27,146.94,-99.69,-3.74,-4.88,3.4
6990,12.5,133.87,-104.44,-3.78,-5.52,3.51
7000,-6.81,118.94,-113,-3.39,-6.71,4.3
7010,-20.69,104.19,-131.19,-3.53,-6.73,4.72
7020,-18.44,96.94,-164.75,-4.57,-5.38,5.64
7030,9.38,96,-197.87,-7.02,-0.73,6.84
7040,55.31,83.31,-201.12,-6.96,0.66,6.37
7050,96.06,62.75,-175.94,-6.82,0.66,5.07
7060,103,48.25,-138.87,-5.36,-1.33,3.13
7070,103,48.25,-138.87,-5.07,-2.12,3.37
7080,-6.5,33.5,-111.81,-5.01,-2.46,4.4
7090,-73.62,22.75,-115.31,-4.9,-2.67,5.68
7100,-112.44,4.19,-123.37,-4.9,-2.48,6.83
7110,-124.5,-18.12,-135.62,-5.06,-2.01,6.74
7120,-124.5,-18.12,-135.62,-5.46,-0.97,6.68
7130,-122.69,-38.13,-152.69,-6.35,1.6,6.5
7140,-70.62,-75.19,-161.87,-6.3,2.38,5.86
7150,-27.62,-86.87,-150.44,-6.17,2.85,5.11
7160,3.19,-94.69,-134.81,-5.81,3.1,4.15
7170,3.19,-94.69,-134.81,-4.91,3.03,2.31
7180,11.44,-102.56,-118.25,-4.41,2.91,1.98
7190,-21.75,-104.75,-98.56,-4.19,3.08,2.09
7200,-38.56,-101.87,-94.94,-3.8,3.69,2.7
7210,-44.19,-103,-89.81,-3.47,3.89,2.84
7220,-44.19,-103,-89.81,-3.46,4.47,3.18
7230,-39.19,-105.31,-88.44,-3.59,5.08,3.09
7240,-4,-112.62,-86.81,-3.88,6.58,2.93
7250,16.19,-120.69,-82.75,-3.92,7.35,3.01
7260,44.5,-132.56,-78.44,-4.33,8.25,2.96
7270,44.5,-132.56,-78.44,-4.99,9.91,1.35
7280,83.19,-135.37,-71.87,-5.34,10.64,0.33
7290,147.87,-129.12,-35.56,-5.64,11.16,-0.8
7300,156.56,-117.19,1.87,-5.74,10.78,-2.48
7310,148.94,-102.62,42.19,-5.52,10.09,-2.7
7320,148.94,-102.62,42.19,-5.26,9.07,-2.56
7330,124.37,-90.25,78.62,-4.89,7.89,-2.01
7340,59.56,-81.06,129.37,-4.54,5.87,-0.38
7350,47.69,-79.12,141.56,-4.51,5.17,0.33
7360,51.25,-80.69,152,-4.45,4.48,0.62
7370,51.25,-80.69,152,-4.45,4.48,0.62
7380,56.63,-88.5,162.81,-4.25,2.55,-0.22
7390,44.88,-100.44,188.56,-3.99,0.42,-0.29
7400,32.25,-103.5,196.06,-3.82,-0.67,0.08
7410,21.44,-112.19,199.75,-3.67,-2.92,0.26
7420,21.44,-112.19,199.75,-3.67,-2.92,0.26
7430,16.69,-124.44,197.12,-3.52,-3.75,-0.11
7440,5.56,-138.56,180.69,-2.74,-5.62,-1.01
7450,-8.06,-138.87,171.87,-2.38,-6.24,-0.79
7460,-23.5,-144.25,161.12,-2.05,-6.61,-0.72
7470,-23.5,-144.25,161.12,-2.05,-6.61,-0.72
7480,-31.81,-149.5,149.12,-1.73,-7.02,-0.74
7490,-26.06,-150.06,122.56,-1.05,-9.02,-1.11
7500,-21.56,-148.06,103,-0.94,-9.49,-1.03
7510,-21.56,-148.06,103,-0.8,-9.8,-1.31
7520,-16.25,-147.37,79.25,-0.8,-9.8,-1.31
7530,-10.13,-150.37,56.69,-0.47,-9.86,-2.06
7540,-7.25,-157.37,35.44,0.16,-9.1,-3.43
7550,-6.31,-152.69,12.88,0.12,-8.55,-3.05
7560,-4.81,-138.56,-8.19,-0.09,-7.82,-2.67
7570,2.31,-125.19,-28.31,-0.09,-7.82,-2.67
7580,19.31,-112.31,-43,-0.14,-7.35,-2.43
7590,32.88,-101.62,-51.31,0.4,-6.79,-1.22
7600,34.19,-94.75,-59.69,0.8,-6.61,-0.66
7610,30.69,-90.94,-68.87,0.61,-5.04,0.45
7620,23.94,-93.69,-81.31,0.61,-5.04,0.45
7630,21.12,-96.87,-98.62,0.49,-3.93,0.95
7640,28.37,-103.62,-111.62,-0.48,-1.81,0.45
7650,41.75,-112.81,-116.56,-0.87,-0.66,-0.26
7660,48.88,-118.25,-112.56,-0.73,-0.96,-0.93
7670,46.63,-126.25,-101.37,-0.73,-0.96,-0.93
7680,45.44,-134,-82.81,0.04,-1.99,-2.18
7690,43.13,-129.75,-69.06,2.19,-6.59,-3.04
7700,29.37,-120.25,-64.87,2.38,-7.82,-3.01
7710,10.81,-115.12,-72.62,2.66,-8.08,-3.55
7720,-6.56,-118.12,-92.37,2.66,-8.08,-3.55
7730,-23.87,-124.56,-122.06,1.63,-6.72,-4.11
7740,-27.06,-124.19,-157.25,-0.41,-3.12,-3.97
7750,1.12,-118.19,-186.75,-2.4,-1.39,-6.29
7760,49.88,-112.75,-200.81,-2.78,-1.13,-8.17
7770,84.94,-111.81,-199.75,-2.78,-1.13,-8.17
7780,82.06,-114.06,-191.44,-3.06,-0.92,-9.71
7790,53.94,-109.62,-182.31,-3.56,-0.74,-12.5
7800,22.25,-90.62,-176.69,-3.95,0.11,-12.4
7810,-2.25,-62.44,-179.5,-4.57,1.47,-12.1
7820,-3.19,-22.25,-190.94,-4.57,1.47,-12.1
7830,19.69,26.19,-197.62,-5.65,4.12,-11.29
7840,42.56,72.31,-194.19,-6.42,5.91,-10.38
7850,43.06,106.5,-179.12,-6.15,6.21,-7.55
7860,13.63,129.69,-154.62,-5.87,5.87,-6.04
7870,-21.81,145.56,-129,-5.87,5.87,-6.04
7880,-38.63,159.37,-105.62,-5.42,5.19,-4.98
7890,-44.56,170.19,-89.44,-4.83,4.47,-2.13
7900,-45.13,180.5,-81.25,-4.87,4.5,-1.32
7910,-43.75,189.69,-74.56,-4.8,4.52,-0.57
7920,-44.06,196.87,-66.5,-4.8,4.52,-0.57
7930,-49.38,205.37,-55.25,-4.35,4.33,1.79
7940,-57.25,214.44,-42.63,-4,3.4,4.64
7950,-63.69,219.62,-28.56,-3.7,2.69,6.05
7960,-68.37,217.31,-16,-3.03,1.95,8.64
7970,-70.81,206.87,-8.13,-3.03,1.95,8.64
7980,-66.62,191.5,-5.44,-3.03,1.63,9.84
7990,-54.19,169.37,-3.69,-2.24,0.82,10.8
8000,-37,137.06,-1.62,-2.35,0.99,10.55
8010,-25.44,99.25,-2.87,-2.64,1.63,9.61
8020,-21.5,51.69,-7.31,-2.64,1.63,9.61
8030,-9.81,3.19,-11.19,-3,3.3,5.26
8040,17.31,-20.75,-13.75,-3.09,4.06,2.83
8050,44,-21.5,-15.88,-3.38,5.17,0.8
8060,53.56,-9.75,-20.12,-4.05,6.88,-0.07
8070,61.25,6.87,-19.31,-5.15,10.36,-0.9
8080,82.62,21.19,-6.37,-5.58,11.63,-2.13
8090,96.62,34.63,20.31,-5.74,12.38,-3.22
8100,83.12,46.56,60.88,-5.55,11.65,-4.56
8110,44.44,54,103.87,-5.51,10.75,-4.35
8120,4.5,59.56,141.81,-5.41,9.55,-4.12
8130,-14.38,66.31,172.75,-5.21,8.26,-4.1
8140,-14.06,77.87,197.19,-4.32,5.02,-4.25
8150,-8.44,88.75,213.81,-3.8,3.66,-4.2
8160,0.62,103.06,222.94,-3.4,2.46,-3.8
8170,16.19,121.37,226.31,-2.31,0.33,-3.4
8180,30.69,141.87,225.69,-2.15,-0.37,-2.63
8190,33.06,167.06,220.94,-2.23,-0.82,-1.14
8200,25,186.25,217.31,-2.23,-1.37,0.45
8210,7.62,187.31,217.37,-1.29,-3.19,2.4
8220,-24.56,167.81,214.56,-1.01,-3.75,3.61
8230,-57.31,135.44,208,-0.54,-4.25,4.66
8240,-67.81,91.75,199.37,1.01,-5.54,5.16
8250,-52.38,47,184.81,1.46,-5.96,3.97
8260,-24.37,11.81,162.62,1.55,-5.81,2.5
8270,1.5,-5.75,138.87,1.01,-5.36,-0.27
8280,14.13,-7.19,125.25,1.26,-5.44,-1.27
8290,7.5,-8,120.94,1.48,-5.61,-2.28
8300,-10.63,-8.19,117.37,1.73,-5.92,-2.96
8310,-30.75,-0.81,112.19,2.81,-6.77,-3.13
8320,-47.44,1.75,103.44,3.13,-7.12,-3.42
8330,-59.69,1.94,88.37,3.11,-7.24,-3.46
8340,-59.81,3.37,66.69,2.5,-6.46,-4.16
8350,-42.63,8.75,45.63,2.09,-6.14,-4.79
8360,-19.12,19.94,30.06,1.55,-5.88,-5.2
8370,-3.19,31.25,17.75,1.16,-5.7,-5.68
8380,0.56,39.19,10.06,0.22,-5.81,-6.83
8390,-12,48.25,8.38,-0.09,-6.25,-7.25
8400,-39.81,56.56,9,-0.36,-6.84,-7.29
8410,-72.44,65.25,7.94,-0.34,-7.87,-6.57
8420,-91.81,76.31,1.12,-0.49,-8.19,-6.47
8430,-92.31,91.37,-14,-0.72,-8.03,-6.41
8440,-79.31,115.06,-34,-1.27,-7.72,-6.25
8450,-62.13,146.75,-53.56,-2.24,-6.49,-4.35
8460,-50.94,176.94,-68.87,-2.86,-5.97,-2.98
8470,-49.44,197.81,-77.69,-3.29,-5.81,-1.86
8480,-57.44,208.56,-80.5,-3.16,-6.08,0.96
8490,-70.62,211.31,-83.56,-3.35,-6.19,2.32
8500,-81.06,208.37,-94.94,-3.88,-5.63,3.78
8510,-77.94,199,-110.62,-4.86,-4.22,6.11
8520,-55.06,181.12,-118.37,-4.45,-4.14,6.29
8530,-20,158.37,-121.31,-4.43,-4.57,6.12
8540,12.94,138.87,-128.25,-4.41,-4.59,5.74
8550,34.63,120.94,-138.31,-4.63,-4.26,5.15
8560,41,108.69,-148.31,-4.78,-3.92,5.35
8570,40.25,100.5,-157.25,-4.94,-3.6,5.58
8580,39.31,95.12,-164.19,-5.73,-2.48,6.17
8590,37.5,91,-168.31,-5.51,-1.91,6.4
8600,29.37,84.44,-166.56,-6.17,-1.97,6.31
8610,8.06,69.31,-157.06,-5.87,-2.16,6.56
8620,-22.12,49.88,-150.69,-5.8,-2.6,6.56
8630,-56.19,32.38,-145.37,-5.58,-3.07,6.54
8640,-92.5,1.87,-145.19,-5.69,-3.22,6.6
8650,-120.75,-31.25,-154.19,-6.35,-1.8,6.56
8660,-122.5,-51.88,-163.94,-6.32,-1.11,6.41
8670,-97.56,-60.44,-168,-6.14,-0.48,6.07
8680,-58.75,-65.75,-165.94,-5.93,-0.06,5.33
8690,-27.69,-69.25,-160.56,-5.53,0.55,3.6
8700,-21.31,-76.25,-156,-5.33,0.87,3.25
8710,-31.12,-86.25,-153.81,-5.07,1.4,3.29
8720,-34.31,-94.62,-150.19,-4.62,2.35,2.67
8730,-25.5,-96.69,-143.87,-4.35,2.72,2.43
8740,-14.63,-94.31,-138.62,-4.15,3.12,2.28
8750,-3.56,-85.06,-133.87,-4.23,4.41,1.96
8760,0.19,-78.44,-129,-4.31,5.05,2.27
8770,-3,-76.81,-120,-4.33,5.6,2.7
8780,-3.31,-77.25,-106.75,-4.22,5.97,3.15
8790,3.94,-80.56,-91,-4.05,6.31,3.75
8800,17.44,-83.37,-77.81,-3.97,6.53,3.97
8810,38.19,-86.87,-66.25,-3.96,6.79,4.13
8820,64.12,-93.06,-55,-4.17,7.73,3.78
8830,89.94,-100.94,-42.81,-4.16,8.05,3.29
8840,110.44,-110.94,-25.56,-4.02,8.12,2.56
8850,117.37,-119.06,-4.25,-3.88,7.86,1.66
8860,107.69,-122.25,16.37,-4.04,7.18,0.82
8870,90.62,-125.25,30.44,-4.55,7.31,1.05
8880,79.75,-127.75,42.5,-4.94,7.48,1.27
8890,81.94,-136.37,59.63,-5.13,6.27,-0.18
8900,86.12,-148.5,82.25,-4.7,5.44,-1.04
8910,80.81,-159,103.12,-4.27,4.41,-1.97
8920,70.06,-163.12,120,-3.32,2.6,-2.65
8930,61.75,-155.31,130.75,-2.92,1.72,-2.59
8940,61.88,-143.06,136.5,-2.66,0.93,-2.32
8950,66.69,-129.25,137.69,-2.41,0.25,-1.78
8960,71.44,-122.37,134.5,-2.62,-0.27,-1.41
8970,74.44,-123.31,128.19,-2.76,0.03,-1.33
8980,74.62,-128.5,125.94,-2.74,0.12,-1.48
8990,72.37,-133.69,132.19,-2.11,-1.01,-1.79
9000,65,-133.06,142.37,-1.85,-1.68,-1.19
9010,53.88,-128.87,150.12,-1.53,-2.65,-0.51
9020,46.44,-130.87,155.25,-1.21,-3.75,-0.11
9030,47.19,-136.12,151.37,-1.18,-5.4,-0.19
9040,50,-145.87,142.31,-0.84,-6.08,-1.15
9050,41.88,-162.56,129.87,-0.53,-6.35,-2.17
9060,24.62,-174.06,112.12,-0.61,-6.13,-3.52
9070,12.75,-171.06,95.06,-0.26,-6.11,-3.73
9080,12.5,-152.44,80.62,-0.03,-5.93,-3.58
9090,18.75,-125.06,66.25,0.12,-5.86,-3.09
9100,20.31,-99.31,56.31,0.56,-6.12,-1.03
9110,8.88,-85.69,49,0.6,-6.29,0.23
9120,-6,-85.62,41.5,0.78,-6.6,1.34
9130,-15.56,-96.69,33.25,1.04,-7.29,2.39
9140,-17.94,-113.62,21.12,0.95,-7.58,2.71
9150,-13.88,-129.5,5.37,0.89,-7.82,2.68
9160,-4.06,-148.81,-13,0.34,-7.55,0.46
9170,9.75,-168.19,-31.94,0.34,-7.33,-1.39
9180,21.56,-180.75,-47.81,0.41,-6.93,-3.06
9190,28.81,-179.94,-63.31,0.29,-6.5,-4.14
9200,33.75,-162.81,-77,-0.25,-5.83,-5.14
9210,35,-139.25,-87.12,-0.32,-5.72,-5.24
9220,26.94,-115.94,-93.12,-0.15,-5.58,-4.94
9230,12.06,-96.56,-99.81,-0.19,-4.75,-3.41
9240,3.44,-83.19,-106.37,-0.02,-4.95,-3.33
9250,2.62,-77.87,-109.31,0.27,-4.96,-3.68
9260,-1.69,-77.19,-117.75,0.22,-4.73,-3.94
9270,-5,-73.69,-130.62,-0.63,-3.58,-4.12
9280,2.25,-69.12,-145.31,-1.12,-2.76,-4.69
9290,17.87,-65.06,-156.5,-1.57,-1.85,-5.5
9300,33.5,-59.25,-160.75,-1.71,-1.28,-7.66
9310,37,-44.06,-155.62,-1.54,-1.16,-8.11
9320,16.5,-24.37,-151,-1.79,-0.81,-7.7
9330,-17.44,-5.81,-150.62,-2.08,-0.39,-6.74
9340,-40.06,3.94,-150,-2.51,0.66,-5.71
9350,-32,9.38,-153.69,-2.74,1.31,-6.35
9360,1.06,23.06,-155.25,-2.72,1.53,-7.33
9370,22.69,44,-150.75,-3.07,2.09,-7.58
9380,10.81,63.5,-148.62,-3.61,2.87,-6.58
9390,-13.13,73.75,-145.06,-4.06,3.37,-6.29
9400,-16.94,78.25,-138.75,-4.7,4.23,-7.44
9410,-0.44,89.94,-133.5,-4.86,4.33,-8.1
9420,16.69,112.31,-123.19,-4.92,4.3,-8.49
9430,14.06,137.31,-110.62,-5.2,4.57,-8.06
9440,-8.19,163.94,-97.75,-5.26,5.14,-4.83
9450,-30.06,188.31,-79.37,-4.96,4.52,-3.08
9460,-44.63,207.06,-57.5,-4.63,3.67,-1.37
9470,-59.81,214.87,-39.31,-3.52,2.36,1.72
9480,-72.75,212.69,-26.19,-3.09,1.82,3.15
9490,-75.25,209.75,-18.56,-2.85,1.36,4.57
9500,-65.12,207.37,-16.37,-2.52,0.92,5.75
9510,-48.06,200,-19.56,-2.05,1.11,7.87
9520,-25.81,191.62,-26.31,-2.05,1.22,8.36
9530,-4.5,177.19,-29.12,-2.18,1.31,8.77
9540,4.75,156.69,-28.87,-2.07,1.53,9.69
9550,4.06,132.31,-27,-2.16,1.84,10.11
9560,-1.87,103.25,-25.31,-2.38,2.3,10.35
9570,-7.31,69.81,-22.06,-2.59,2.71,10.17
9580,-7.31,69.81,-22.06,-3.05,3.97,7.43
9590,-14.19,-11.38,-11.88,-3.33,4.66,5.51
9600,-10.63,-36.94,-8.06,-3.56,5.58,3.66
9610,7.62,-41.25,-8,-4.73,8.32,1.03
9620,40.5,-20.12,-6.31,-5.15,9.5,0.31
9630,80.94,27.62,32.69,-5.5,10.3,-0.23
9640,80.94,27.62,32.69,-6.09,11.18,-0.21
9650,66.75,33.81,61.13,-6.26,11.2,-0.36
9660,43.94,25.87,94.44,-6.09,10.42,-0.9
9670,28.75,13.81,129.62,-5.67,9.1,-1.75
9680,28.75,13.81,129.62,-4.78,6.48,-3.71
9690,19.56,-0.13,178.12,-4.33,5.32,-4.8
9700,12.38,14.25,199.87,-3.93,4.48,-5.51
9710,12.38,14.25,199.87,-2.9,2.86,-5.61
9720,2,42.63,213.06,-2.36,1.95,-5.58
9730,2,42.63,213.06,-2.19,1.18,-5.31
9740,-14.63,49.13,215,-2.21,0.86,-4.53
9750,-38.06,42.5,218.12,-1.52,-0.47,-4.99
9760,-64.5,19.06,229.69,-0.68,-1.61,-5.78
9770,-113.94,-8,241.37,0.25,-2.71,-6.33
9780,-113.94,-8,241.37,1,-4.64,-5.27
9790,-124.94,4.56,233.37,0.75,-5.71,-4.08
9800,-94.19,7.31,202.5,0.87,-6.12,-3.46
9810,-52.81,-1.75,183.5,1.04,-6.72,-3.91
9820,-20.75,-10.13,160.37,1.27,-7.26,-7.11
9830,-20.75,-10.13,160.37,0.84,-7.22,-9.03
9840,-8.81,-3.44,139.62,0.39,-7.29,-10.28
9850,-38.94,62.19,108.56,-0.25,-6.91,-10.78
9860,-60.38,101.81,99.19,-0.62,-6.85,-10.04
9870,-76.12,138.12,94.06,-0.85,-7.15,-8.9
9880,-76.12,138.12,94.06,-0.9,-8.18,-5.3
9890,-87.25,167.19,87.19,-0.71,-8.51,-3.47
9900,-79.37,189.81,61,-0.86,-8.98,-2.14
9910,-66.5,185.56,40.25,-1.11,-8.93,-1.25
9920,-54.56,180.94,22.25,-1.68,-8.34,-0.15
9930,-54.56,180.94,22.25,-2.05,-8.22,0.02
9940,-46.81,172.75,8.63,-2.42,-8.14,-0.25
9950,-55,153.75,-8.75,-2.79,-8.35,-1.16
9960,-71.06,154.44,-15.44,-2.88,-8.67,-1.51
9970,-88.25,163.56,-25,-3.53,-9.23,-1.47
9980,-88.25,163.56,-25,-3.53,-9.23,-1.47
9990,-92.19,180.87,-40.81,-2.88,-9.23,-0.68
10000,-44.5,215.69,-87.12,-4.3,-8.47,3.11
