timestamp,gyrox,gyroy,gyroz,accx,accy,accz
10,1.19,-3.69,-0.81,0.16,-0.13,0.13
20,4.37,-2.5,-1.62,0.17,-0.09,-0.01
30,3.69,-1,-1.81,0.04,-0.01,-0.02
40,-0.19,-0.44,-1.06,0.05,0.02,0.08
50,-2.56,-1.56,-0.44,0.11,0,0.24
60,-0.62,-3,-0.44,0.11,0,0.14
70,2.44,-3.12,-0.37,0.07,0.03,-0.1
80,2.37,-1.94,0,0.03,0.09,-0.1
90,-0.19,-0.5,1.62,0.06,0.05,0.05
100,-1.25,-0.5,3.06,0.05,-0.02,0.15
110,1,-1.06,3.69,0.17,-0.22,-0.02
120,2.5,-0.69,3.69,0.13,-0.33,-0.09
130,0.13,0.37,3.06,0.26,-0.37,0.03
140,-2.69,0,1.12,0.16,-0.31,0.27
150,-0.44,-0.75,0.13,0.15,-0.29,0.31
160,2.44,-0.88,-0.37,0.16,-0.28,0.22
170,1.87,-0.69,-0.81,0.15,-0.23,0.24
180,1.25,-0.62,-0.62,0.12,-0.24,0.45
190,1,-1.25,-0.31,0.08,-0.27,0.51
200,1.31,-2.87,-0.69,0.07,-0.27,0.53
210,2.25,-4.94,-1.5,0.08,-0.24,0.45
220,3.87,-7.25,-2.75,0.11,-0.14,0.05
230,5,-7.44,-3.44,0.09,-0.05,-0.1
240,3.81,-6.44,-3.75,0.12,0.04,-0.1
250,2.37,-5.69,-3,0.11,0.1,-0.08
260,1.56,-5.37,-1.62,0.19,0.04,-0.2
270,-0.69,-4.94,-1.31,0.32,0.02,-0.24
280,-3.56,-4.62,-1.69,0.51,0.05,-0.08
290,-3.31,-4.62,-2.25,0.71,0.36,0.02
300,-0.19,-4.69,-2.81,0.91,0.62,0.03
310,1.25,-6.56,-1.06,1.2,0.85,-0.09
320,0.44,-10.38,2.44,2.17,1.19,-0.52
330,-1.94,-16.12,7.37,3.18,1.3,-0.97
340,-2.69,-25.5,10.88,3.64,1.51,-1.95
350,1.25,-29.5,15.69,4.45,1.58,-5.03
360,-0.94,-30.94,21.81,4.48,1.42,-6.81
370,-16.87,-26.69,29,4.28,1.17,-8.18
380,-33.94,-13.13,37.5,3.91,0.78,-9.25
390,-43.31,10.5,48.25,3.69,-0.87,-11.09
400,-44.31,43.31,54.38,3.62,-1.71,-11.53
410,-31.75,85.87,51.5,3.33,-2.29,-11.66
420,-7.69,135.31,40.69,2.26,-2.57,-11.39
430,14.38,187.75,25.75,1.01,-2.29,-10.66
440,20.25,240.56,10.63,-0.41,-1.77,-9.12
450,11.5,287.31,-0.13,-1.96,-1.08,-6.99
460,-1.69,327.19,-1.62,-4.07,-0.55,-0.91
470,-13,348.19,3.56,-4.86,-0.7,1.79
480,-23.12,340.5,7.94,-5.26,-1.21,3.92
490,-32.38,312,1.12,-5.66,-1.18,6.9
500,-27.25,284.94,-12.63,-6.1,-0.64,7.01
510,-7.87,258.87,-24.87,-6.45,-0.18,6.51
520,-1.56,226,-33.94,-7.1,0.33,6.32
530,-15.81,179.5,-36.75,-8.04,1.53,7.79
540,-15.81,179.5,-36.75,-8.42,1.94,8.5
550,-35.13,137.94,-32.88,-8.64,2.03,9.05
560,-33.88,68.12,-5.5,-8.85,1.61,9.25
570,-20.44,42.63,5.5,-9.05,1.56,9.36
580,-10.56,21.44,13.63,-9.44,1.63,9.61
590,-10.56,21.44,13.63,-9.87,1.53,10.61
600,3.69,-27.87,34.25,-9.86,1.18,10.73
610,7.81,-66.56,44.19,-9.8,0.57,10.3
620,5.25,-107.81,48.75,-9.51,-0.22,9.47
630,-5.81,-142.62,43.38,-9.11,-1.28,7.7
640,-5.81,-142.62,43.38,-9.15,-1.18,7.57
650,-20.25,-166.81,29.69,-9.33,-0.78,7.71
660,-38.75,-205.94,6.37,-9.78,-0.04,7.69
670,-40.44,-229.19,4.31,-9.8,0.09,7.72
680,-39.31,-259.12,7.87,-9.64,-0.11,7.37
690,-39.31,-259.12,7.87,-9.64,-0.11,7.37
700,-35.69,-293,10.69,-8.89,-1.07,4.47
710,-21.62,-350.37,5.37,-8.59,-1.17,3.65
720,-14.88,-381.56,-0.44,-7.71,-1.31,2.79
730,-18.94,-422.12,-9.88,-6.93,-1,1.74
740,-18.94,-422.12,-9.88,-6.72,-0.44,1.21
750,-26.37,-472,-21.62,-6.72,-0.44,1.21
760,55.06,-474.44,-19.37,-4.29,0.82,-4.17
770,87.5,-472.12,-3,-1.8,0.57,-12.85
780,81.12,-450.94,5.56,-1.28,0.28,-13.8
790,81.12,-450.94,5.56,-1.28,0.28,-13.8
800,94.19,-405.81,-2.31,-0.18,1.67,-23.09
810,164.69,-281.69,16.37,1.48,1.07,-25.83
820,128.69,-236.5,45.81,2.49,-0.33,-26.28
830,94.87,-182.62,66.56,4.1,-3.48,-26.04
840,94.87,-182.62,66.56,4.1,-3.48,-26.04
850,92.19,-119.87,72.87,4.6,-4.4,-26.12
860,62.25,24.81,59.13,4.56,-5.96,-26.06
870,28.69,101.19,54.13,3.78,-6.89,-21.56
880,16.5,169.12,46.5,2.82,-7,-18.16
890,16.5,169.12,46.5,2.82,-7,-18.16
900,12.19,224.44,35.56,2.19,-6.8,-14.84
910,5.44,280.12,7.62,0.52,-6.76,-7.52
920,4,279.25,-14.88,-0.37,-6.16,-6.02
930,10.44,270.94,-42.56,-0.8,-4.77,-4.62
940,10.44,270.94,-42.56,-0.8,-4.77,-4.62
950,29.62,261.87,-65.12,-2.12,-2.32,-4.02
960,49.81,273.19,-88.19,-4.26,-0.43,-3.92
970,37.13,291.06,-84.37,-5.48,0.44,-2.1
980,17.25,305.19,-73.62,-6.01,0.28,-0.99
990,17.25,305.19,-73.62,-6.01,0.28,-0.99
1000,0,315.75,-63.63,-6.35,0,0.09
1010,-16.87,316.12,-60.63,-6.88,-0.02,3.54
1020,-19.25,305.31,-64.25,-7.09,0.23,4.33
1030,-15,294,-70.44,-7.39,0.66,4.95
1040,-15,294,-70.44,-7.39,0.66,4.95
1050,-7.19,282.94,-75.19,-7.83,1.83,6.34
1060,4.31,267,-70.44,-8.39,2.65,6.88
1070,4.31,267,-70.44,-8.36,2.7,6.79
1080,10.88,269.5,-60.88,-8.17,2.62,7.67
1090,13.63,271.12,-51.44,-8.17,2.62,7.67
1100,11.69,250.19,-44.25,-7.9,2.63,8.75
1110,3.75,204.44,-39,-8.32,2.98,11.33
1120,-9.06,163.94,-31.87,-8.26,2.99,11.72
1130,-18.56,113.25,-23.44,-8.1,2.82,11.73
1140,-17.69,62.25,-12.88,-8.1,2.82,11.73
1150,-6.19,16.62,-4.62,-7.75,2.44,10.6
1160,8,-21.44,0.44,-7.74,2.59,8.72
1170,18.12,-49.56,6,-7.59,2.5,8.08
1180,19.81,-69.19,14.94,-7.16,2.03,7.38
1190,13.5,-86.12,24.25,-7.16,2.03,7.38
1200,7,-101.44,33.19,-6.92,1.72,7.31
1210,5.25,-117.12,41.38,-6.25,-0.05,6.42
1220,3.31,-136.19,48.38,-5.82,-0.72,6.21
1230,-6.19,-160.69,52.44,-5.45,-1.22,5.96
1240,-20.37,-190.06,49.63,-5.45,-1.22,5.96
1250,-27.56,-218,40.44,-5.28,-1.49,5.53
1260,-24.25,-237.87,28.19,-5.09,-1.27,3.48
1270,-17.19,-250.56,15.06,-5,-0.94,3.22
1280,-12.25,-260.31,5.06,-5.15,0.43,3.09
1290,-10,-271.37,-2.5,-5.15,0.43,3.09
1300,-4.19,-287.5,-3.75,-5.2,1.11,2.99
1310,6.19,-316.62,5.94,-4.8,1.31,1.88
1320,11.31,-351.69,23.87,-4.19,0.24,-0.53
1330,7.06,-369.69,41.56,-2.79,-0.46,-1.61
1340,21.5,-357.56,51,-2.79,-0.46,-1.61
1350,56.56,-344.12,49.06,-1.21,-0.63,-3.18
1360,78.37,-330.5,42.06,-0.24,-0.04,-7.79
1370,82,-306.5,27.31,-0.18,0.64,-9.25
1380,77.44,-286.44,25.69,1.07,-0.55,-12.59
1390,62.88,-273.75,45.94,1.07,-0.55,-12.59
1400,40.56,-255.62,66.81,2.34,-1.34,-13.51
1410,28.12,-230.37,77.06,3.02,-3.14,-16.16
1420,29,-202.62,84.5,3.46,-5.71,-19.08
1430,26.44,-171.44,86.81,3.71,-6.66,-20.18
1440,16.94,-135.56,79.06,3.71,-6.66,-20.18
1450,8.31,-95.87,62.31,3.72,-7.23,-21.13
1460,2.87,-49.31,40.63,3.31,-6.6,-21.23
1470,4,9.31,18.06,2.96,-5.86,-19.57
1480,9.69,78.62,-1.56,2.23,-4.9,-16.97
1490,11.5,144.19,-15.31,2.23,-4.9,-16.97
1500,6.12,191.31,-21.31,0.62,-3.57,-11.71
1510,-1.81,218.44,-23.37,-0.34,-3.36,-8.71
1520,-8.5,228.31,-23,-1.21,-3.21,-6.31
1530,-23.06,227.37,-27.37,-1.43,-2.52,-5.17
1540,-31.56,227.19,-39.94,-1.43,-2.52,-5.17
1550,-19.37,235.75,-52.88,-2.23,-1.97,-4.57
1560,-1.06,248.06,-64.69,-3.96,0.05,-2.71
1570,7.5,266.44,-74.5,-4.89,0.66,-1.97
1580,8.75,286.37,-78.81,-5.5,0.89,-1.26
1590,3.56,303.94,-73.5,-5.5,0.89,-1.26
1600,-10.81,314.5,-63.56,-6.06,0.88,1.21
1610,-27.12,320.25,-53.5,-6.57,0.49,3.8
1620,-34.31,323.87,-45.88,-6.64,0.18,6.35
1630,-29.37,328.06,-43.31,-6.86,0.2,7.18
1640,-20.62,327.94,-46.88,-6.86,0.2,7.18
1650,-16.75,322.44,-54.06,-7.24,0.38,7.72
1660,-12.81,329.12,-62.25,-7.69,0.78,7.98
1670,-2.12,332.19,-67.81,-7.43,1.85,10.05
1680,6.87,280.06,-68.06,-8.02,2.25,10.39
1690,-0.44,226.25,-66.31,-8.41,2.85,11.32
1700,-13.56,169.81,-58.06,-8.51,3.64,12.7
1710,-16.69,110.44,-41.25,-8.25,3.53,12.43
1720,-9.69,56.25,-24.62,-7.96,3.25,11.69
1730,-0.81,11.38,-12.81,-7.84,2.96,10.6
1740,4.69,-18.31,-5.31,-7.69,2.52,8.53
1750,2.31,-34.69,1.06,-7.62,2.26,8.09
1760,-6.37,-44.19,5.56,-7.57,2.13,8.23
1770,-12.94,-55.63,9.25,-7.8,2.12,8.93
1780,-14,-74.06,15.06,-7.75,2,9.19
1790,-11.38,-102.19,22.62,-7.68,1.71,9.02
1800,-9.63,-138.12,31.12,-7.27,0.39,7.09
1810,-14.69,-175.25,36.56,-6.92,-0.25,6.17
1820,-26.19,-208.06,35.56,-6.44,-0.78,5.34
1830,-36.75,-233.5,28.81,-6,-1.07,4.7
1840,-38.38,-250.5,18.87,-5.74,-0.9,3.64
1850,-25.62,-262.25,10.81,-5.65,-0.72,3.43
1860,-5.81,-270.69,7.81,-5.72,-0.7,3.02
1870,5.12,-275.87,7.75,-5.47,-0.59,2.18
1880,3.25,-280.62,5.75,-5.33,-0.11,2.47
1890,1.5,-289.37,4.06,-5.22,0.24,2.65
1900,5.37,-309.5,9.13,-4.62,0.19,2.13
1910,7.19,-322.94,17.37,-4.04,-0.68,0.1
1920,14.5,-337.69,22.31,-2.84,-1.48,-0.87
1930,52.25,-331.25,7.69,-1.61,-0.97,-1.72
1940,99.81,-327.69,-1,-1.63,-0.03,-8.1
1950,97.19,-334,9.31,-0.77,0.02,-10.14
1960,56.13,-330.12,16.37,0.15,0.3,-10.68
1970,52.75,-306.31,22.5,0.42,0.35,-12.09
1980,76.75,-272.06,34.69,1.74,-0.99,-17.56
1990,70.25,-237.94,47.06,2.18,-1.4,-19.46
2000,34.63,-200.56,58.31,2.47,-2.1,-20.56
2010,5.31,-161.25,71.62,3.46,-4.71,-22.43
2020,-6.5,-117.69,79.5,3.97,-6.03,-23.11
2030,-5.19,-61.69,73.19,4.1,-6.87,-23.24
2040,5.44,7.5,57.94,4.41,-7.42,-22.81
2050,15.06,83,37.31,3.95,-7.5,-19.17
2060,12.06,152.06,13.63,3.06,-6.69,-15.99
2070,2.25,204.44,-7.12,2.17,-5.92,-12.8
2080,-5.87,237.25,-22.25,0.72,-4.64,-7.17
2090,-10.06,245.5,-35.81,-0.01,-3.89,-5.21
2100,-7,237.62,-48.56,-0.25,-3.04,-4.07
2110,-3.62,220,-59.19,-1.26,-1.47,-3.35
2120,-6.12,201.75,-65.25,-2.16,-0.43,-3.16
2130,-2.87,199.12,-65.44,-2.54,0.18,-3.15
2140,3.75,203.62,-54.69,-3.07,-0.2,-3.74
2150,-4.81,217.75,-50.13,-3.58,-0.34,-2.52
2160,-17.37,236.06,-51.44,-4.09,-0.37,-1.55
2170,-17.75,255.56,-52,-4.48,-0.45,-0.8
2180,-12.44,273.87,-54.19,-5.12,-0.32,0.9
2190,-10.75,290.81,-57.69,-5.46,-0.1,1.76
2200,-17.5,301.75,-62.19,-5.96,0.25,2.84
2210,-27.06,305.44,-65.75,-6.36,0.59,4.12
2220,-32.81,302.44,-66.25,-6.67,1.19,6.63
2230,-34.88,292.12,-65.37,-6.86,1.42,7.57
2240,-33.19,280.44,-65.5,-7.09,1.78,8.14
2250,-20.19,279.56,-64.25,-7.34,2.51,8.46
2260,-3.25,271.12,-59.06,-6.94,2.74,9.14
2270,0.06,223.75,-52.13,-7.14,2.98,9.41
2280,-15.94,169.44,-46.75,-7.59,3.26,10.2
2290,-30.37,119.69,-36.38,-7.47,3.72,11.63
2300,-26.44,68.56,-20.31,-7.31,3.37,11.18
2310,-11.88,26.87,-5.44,-7.03,2.74,10.11
2320,-6.25,-2,1.37,-6.59,2.17,8.65
2330,-12.94,-21.37,0.19,-6.56,2.53,8.71
2340,-16,-36.31,0.94,-6.66,2.85,8.84
2350,-9.13,-51.44,7.81,-6.56,2.64,8.15
2360,-5.06,-69.5,19,-6.48,2.29,7.7
2370,-9.75,-90.31,29.44,-6.3,1.83,7.48
2380,-16,-110.37,37.75,-6,1.27,7.43
2390,-18.37,-132.62,41,-5.56,0.24,6.62
2400,-20.06,-158.56,39.56,-5.37,0,5.85
2410,-25.5,-184.19,35.31,-5.02,-0.13,5.23
2420,-29.81,-207,30.62,-4.72,0,4.02
2430,-22.12,-226.56,29.19,-4.53,-0.12,3.56
2440,-6.5,-245.5,32.56,-4.08,-0.42,3.2
2450,3.94,-262.5,35.69,-3.89,-0.55,2.85
2460,7.31,-269.31,37,-3.73,-1.18,1.99
2470,7.25,-267.44,36.5,-3.21,-1.41,1.46
2480,5.5,-247.94,30.94,-2.79,-1.47,1.31
2490,9.31,-236.62,21.81,-2.02,-1.19,0.7
2500,21.12,-233.12,13.25,-2.85,-1.31,0.34
2510,33.88,-238.94,6.31,-1.65,-1.07,-0.07
2520,59.06,-241.06,-0.69,-1.62,-0.37,-0.68
2530,81.81,-250.5,5.81,-1.32,-0.1,-5.11
2540,68.75,-254.69,20.69,-0.45,-0.19,-6.09
2550,36.13,-257.94,33.56,-0.07,-0.53,-6.19
2560,40.56,-248.25,39.81,0.8,-1.63,-8.32
2570,75.12,-232.75,42.06,1.26,-2.52,-10.97
2580,80.37,-218.06,40.44,1.76,-2.86,-13.12
2590,39.5,-207.19,38,1.86,-3.05,-14.73
2600,2.56,-192.06,41,2.37,-3.8,-15.37
2610,2.12,-165.5,45.88,3.09,-4.87,-16.52
2620,16,-129.62,39,3.62,-5.41,-17.86
2630,20.44,-86.5,22.44,3.84,-5.09,-19.37
2640,14,-32.31,3.69,3.81,-4.33,-18.85
2650,4.75,32,-8.75,3.39,-3.67,-17.32
2660,-2.44,96.94,-14.25,2.49,-2.66,-12.22
2670,-10.56,148,-15.5,1.95,-2.39,-9.72
2680,-20.25,175.12,-13.81,1.6,-2.37,-7.58
2690,-27.87,180.62,-12.13,1.31,-2.54,-5.95
2700,-29.75,172.19,-15.56,1.18,-2.66,-4.25
2710,-23.75,157.81,-22.69,0.24,-2.51,-4.27
2720,-9.38,149.94,-31.81,0.22,-2.05,-4.79
2730,2.81,153,-36.69,-0.33,-2.13,-6.41
2740,-14.25,163.37,-43.19,-1.36,-1.97,-5.66
2750,-39.63,182.25,-51.25,-2.41,-1.14,-4.25
2760,-35.88,210.44,-55.38,-2.55,-0.66,-3.21
2770,-19.81,232.12,-54.13,-3.02,-0.88,-2.1
2780,-18.25,246.75,-60.31,-3.7,-0.48,-1.21
2790,-23.69,254.12,-66.75,-4.34,-0.1,-0.32
2800,-25.12,259.12,-68.75,-4.89,0.6,1.55
2810,-23.5,261.87,-66.06,-5.38,0.7,2.15
2820,-24.06,263.62,-58.44,-5.54,0.66,2.76
2830,-30.37,261.44,-49.69,-5.34,0.5,4.65
2840,-36.5,256.44,-43.88,-5.57,0.51,5.53
2850,-35.5,250.94,-39.94,-5.62,0.47,6.22
2860,-29.81,244,-36.5,-5.66,0.31,6.79
2870,-26.69,235.69,-35.69,-5.74,0.41,8
2880,-24.94,234.62,-38.25,-5.95,0.58,8.3
2890,-18.44,241.44,-40.38,-6.02,0.78,8.49
2900,-7.87,235.25,-42.06,-6.09,1.5,10.49
2910,-0.81,182.69,-40.13,-6.62,1.73,11.13
2920,-6.5,137.25,-36,-6.61,1.96,11.74
2930,-15,83.37,-27.12,-6.61,2.01,12.02
2940,-16.75,28,-15.25,-6.29,1.49,11.18
2950,-9.94,-17.44,-7.12,-6.26,1.34,10.35
2960,3.5,-47.5,-3.37,-6.33,1.31,9.56
2970,18.12,-64.75,-0.88,-6.51,1.68,8.15
2980,25.94,-77.19,3.75,-6.49,1.67,7.74
2990,22.56,-91.5,10.69,-6.44,1.64,7.5
3000,10.25,-110.62,17.06,-6.36,1.69,7.44
3010,-2.31,-134.69,25,-6.34,1.29,7.05
3020,-8.13,-159.75,35,-6.06,0.86,6.79
3030,-7.56,-186.19,43.88,-5.91,0.34,6.32
3040,-3.19,-212.12,50.13,-5.29,-0.79,4.57
3050,1.44,-237.44,54.69,-4.88,-1.49,3.61
3060,2.31,-262.69,56.38,-4.33,-2.26,3.14
3070,-3.37,-290.56,49.31,-3.87,-2.51,3.06
3080,-4.75,-315,37,-3.24,-2.45,2.59
3090,11.13,-321.94,20.37,-2.91,-2.13,1.28
3100,40.31,-294.94,6.37,-1.9,-1.86,-0.03
3110,56.69,-279.62,-3.62,-1.83,-1.68,-1.86
3120,60.69,-265.06,-21,-1.19,-0.57,-1.81
3130,85.37,-252.75,-34,-1.8,0.33,-3.52
3140,98.69,-256.12,-27.5,-0.26,0.85,-7.87
3150,66.69,-260.56,-17.31,-0.08,1.18,-8.36
3160,32.31,-258.56,-2.81,0.47,0.74,-8.77
3170,45.88,-237.69,11.69,1.82,-0.04,-10.18
3180,71.94,-214.06,19.31,2.83,-1.55,-15.63
3190,51.06,-190.44,16.19,2.98,-1.23,-16.82
3200,-5.87,-168.44,14.69,3.12,-1.04,-16.89
3210,-37.75,-139.81,20.62,3.43,-1.77,-17.35
3220,-21,-103.56,25.25,3.15,-2.43,-19.22
3230,1.94,-59.06,27.31,3.53,-2.99,-20.83
3240,-10.25,-6.37,29.25,3.28,-3.46,-20.9
3250,-34.44,56.63,27.75,3.05,-3.53,-16.46
3260,-35.5,122.56,23.31,2.56,-3.47,-13.99
3270,-26.94,176.44,17.56,2.03,-3.3,-11.67
3280,-24.75,211.75,10.63,1,-2.81,-7.17
3290,-23.31,227.31,3.19,0.18,-2.34,-5.75
3300,-17.62,227.12,-0.37,0.32,-2.17,-5.1
3310,-23.75,213.31,-1.12,-0.14,-2.17,-4.46
3320,-36.69,193.25,-4.69,-0.95,-1.41,-2.7
3330,-27.31,181,-6.87,-1.18,-1,-2.61
3340,1.69,184.12,-5.25,-1.61,-1.03,-3.23
3350,17.19,196,-3.37,-2.17,-1.62,-3.23
3360,7.87,212.25,-7.25,-2.5,-1.58,-2.16
3370,-5.62,229.56,-14.38,-3,-1.45,-0.85
3380,-5.44,245,-23.62,-3.83,-0.83,1.18
3390,-1.62,252.06,-29.87,-4.31,-0.6,1.86
3400,-1.62,252.06,-29.87,-4.63,-0.52,2.55
3410,-9.56,247.94,-35.63,-4.86,-0.39,3.29
3420,-12.63,242.94,-41.25,-5.31,0.25,4.85
3430,-13.13,235.5,-45.75,-5.56,0.49,5.32
3440,-15.13,222.37,-48,-5.58,0.64,5.64
3450,-19.37,204.62,-47.31,-5.77,0.77,6.46
3460,-23.5,192.06,-47.81,-5.91,1.07,6.9
3470,-25.87,183.94,-50.25,-6.01,1.43,7.28
3480,-23.37,181.25,-50.5,-6.22,1.7,7.64
3490,-12.19,178.37,-46.94,-6.39,1.95,7.75
3500,-0.75,173.37,-41.38,-6.37,1.94,7.59
3510,2.12,162.62,-34.13,-6.57,1.96,8.33
3520,-1.5,126.5,-26,-6.68,1.94,9.71
3530,-11.19,89.75,-20.62,-6.7,1.96,10.37
3540,-17.25,49.56,-14.88,-6.57,1.84,10.72
3550,-17.25,49.56,-14.88,-6.54,1.55,9.86
3560,-11.75,7,-7.62,-6.34,1.32,8.81
3570,15.69,-61.19,4.25,-6.22,1.05,7.73
3580,19.87,-81.06,8.5,-6.1,0.88,7.05
3590,17.37,-91.62,10.75,-5.99,0.79,6.67
3600,17.37,-91.62,10.75,-5.9,0.81,6.9
3610,10.75,-101.44,12.56,-5.88,0.71,6.96
3620,0.69,-142.69,23,-5.64,0.01,5.86
3630,-0.19,-170.81,29,-5.42,-0.5,5.2
3640,-0.37,-195.56,31.69,-5.2,-0.82,4.77
3650,-0.37,-195.56,31.69,-4.95,-0.81,4.42
3660,3.75,-212.25,28.5,-5.15,0.03,3.34
3670,23.06,-228.56,20.12,-4.97,0.41,3.02
3680,25.12,-236.56,26.69,-4.74,0.66,2.92
3690,21.87,-248.19,40.94,-3.92,-0.71,2.45
3700,21.87,-248.19,40.94,-3.25,-1.35,2.47
3710,15.19,-267.75,54.25,-2.96,-1.58,2.33
3720,7.87,-326.75,48.31,-2.48,-1.64,1.3
3730,26.81,-334,37.88,-1.79,-1.35,-2.69
3740,56.5,-351.31,32.44,-1.27,-1.53,-4.94
3750,56.5,-351.31,32.44,0.49,-0.95,-7
3760,89.37,-347.75,25.37,0.03,-1.29,-13.67
3770,131.12,-294.12,37.06,1.06,-1.43,-15.69
3780,87.87,-256.44,45.63,2.3,-1.13,-16.31
3790,36.56,-218.62,55.13,2.49,-1.2,-16.13
3800,36.56,-218.62,55.13,3.5,-3.62,-17.12
3810,19.19,-186.12,72.56,3.81,-4.92,-18.68
3820,44.56,-113.81,81.25,4.01,-6.05,-20.18
3830,24.44,-73.62,69.56,4.3,-6.75,-19.8
3840,-1.25,-26.06,49.75,3.97,-6.66,-18.68
3850,-1.25,-26.06,49.75,3.97,-6.66,-18.68
3860,6.5,31.25,33.69,4.17,-6.8,-17.8
3870,21.87,150.25,-10.5,2.1,-4.4,-11.3
3880,8.13,192.37,-29.75,1.32,-3.16,-8.62
3890,4.5,214.31,-40.63,0.4,-2.24,-6.42
3900,4.5,214.31,-40.63,0.4,-2.24,-6.42
3910,5.37,215.75,-41.69,-0.75,-1.47,-4
3920,5.19,192.94,-35.13,-1.15,-0.96,-3.06
3930,8.06,187.19,-32.19,-1.35,-1.06,-2.72
3940,4.37,189.94,-37.38,-1.91,-0.95,-2.35
3950,4.37,189.94,-37.38,-1.91,-0.95,-2.35
3960,-2.94,197.19,-44.75,-2.63,-0.66,-1.89
3970,-4.37,224.31,-54.31,-3.98,0.32,-0.06
3980,-0.94,237.87,-54.5,-4.29,0.55,0.74
3990,-0.94,237.87,-54.5,-4.75,0.71,1.65
4000,1.5,249.31,-52.75,-4.75,0.71,1.65
4010,3.37,255.31,-50.38,-4.97,1.16,3.76
4020,7.87,254.69,-45.56,-5.31,0.99,4.86
4030,14.13,250.5,-40.31,-5.22,0.87,5.37
4040,15.88,243.37,-38.13,-5.33,1.2,6.87
4050,11.38,231.56,-41,-5.33,1.2,6.87
4060,7.81,218.25,-46.69,-5.54,1.6,7.38
4070,8.44,207.56,-51.5,-5.99,2.91,8.01
4080,13.19,205.56,-54.94,-6.3,3.41,7.82
4090,19.06,200.19,-56.44,-6.4,3.7,8.61
4100,18.37,189,-51.31,-6.4,3.7,8.61
4110,7.31,147.12,-40.44,-6.77,4.04,9.84
4120,-13.25,102.56,-27,-6.38,3.15,10.43
4130,-31.5,58,-9.44,-5.99,2.46,10.31
4140,-38.75,14.13,5.44,-5.87,1.99,9.52
4150,-32.56,-22,10.69,-5.87,1.99,9.52
4160,-14.19,-46.81,10.31,-5.82,2.06,8.94
4170,6.06,-63.44,9,-6.11,2.63,7.28
4180,15.88,-77.75,9.25,-6.1,2.66,6.95
4190,9.94,-94.37,13.81,-5.93,2.61,6.7
4200,-7.75,-117.19,21.31,-5.93,2.61,6.7
4210,-26.81,-144.87,29.87,-5.83,2.42,6.35
4220,-38.38,-173.06,39.19,-5,1.28,4.96
4230,-35.13,-196.06,47.25,-4.96,1.06,4.29
4240,-16.87,-212.19,51.63,-4.88,0.57,2.61
4250,6.25,-222.5,55.5,-4.88,0.57,2.61
4260,18.06,-237.69,63.69,-4.51,0.17,2.3
4270,14.06,-255.87,73.12,-3.81,-0.26,2.52
4280,11.31,-271.25,78.19,-3.47,-1.1,0.86
4290,23.12,-276.37,81.44,-1.88,-1.57,-0.69
4300,48.5,-263.62,83.19,-1.88,-1.57,-0.69
4310,66.87,-261.37,81.69,-2.29,-2.26,-2.34
4320,55.44,-256.06,73.44,-0.08,-1.77,-4.12
4330,31.5,-239.94,57.44,0.45,-1.3,-3.86
4340,10.19,-234.06,48.31,0.62,-0.85,-5.16
4350,9.31,-231.69,43.31,0.62,-0.85,-5.16
4360,41.25,-231.31,43.69,0.94,-1.1,-7.39
4370,74.56,-232.75,50.88,1.46,-1.83,-12.38
4380,75.62,-236.06,60.19,1.91,-3.44,-16.35
4390,46.88,-238.44,72.12,2.6,-4.57,-17.86
4400,11.94,-230.19,85.12,2.6,-4.57,-17.86
4410,0.5,-196.81,93.56,3.27,-5.89,-19.37
4420,10.13,-140.44,91,4.3,-8.63,-21.37
4430,11.38,-68.69,75.69,3.9,-8.39,-19.44
4440,-5.69,7.94,49.94,3.5,-7.69,-16.57
4450,-17.56,80.94,20.87,3.5,-7.69,-16.57
4460,-8.5,142.12,-3.5,2.47,-6.15,-11.19
4470,4.19,184.56,-22,1,-4.66,-7.29
4480,9.31,206.25,-35.44,0.24,-3.75,-4.65
4490,9.19,211.87,-44,-0.16,-3.16,-4.06
4500,3.87,206.5,-52.06,-0.16,-3.16,-4.06
4510,-0.75,199.12,-60.81,-0.02,-2.81,-3.86
4520,-12,187.87,-67.87,-1.69,-0.87,-2.62
4530,-27.75,180.56,-78.62,-2.21,-0.67,-2.56
4540,-23,189.31,-83.44,-2.76,-0.51,-2.5
4550,-4.87,204.44,-83.81,-2.76,-0.51,-2.5
4560,4.94,222.62,-87.19,-3.58,0.08,-1.57
4570,2.75,239.56,-88,-4.15,0.26,-0.87
4580,-4.69,254.37,-88.19,-4.67,0.45,-0.07
4590,-10.88,269.81,-88.06,-5.14,0.97,2.27
4600,-15.19,285.25,-86.94,-5.49,1.14,3.49
4610,-18.12,293.37,-84.62,-5.83,1.28,4.68
4620,-18.25,292.12,-82.62,-6.04,1.42,5.74
4630,-13,282.37,-82.31,-5.88,1.97,7.73
4640,-2.62,265,-84.94,-6.16,2.37,8.03
4650,11.5,251.31,-87.31,-6.42,2.75,7.99
4660,27.25,246.69,-87.87,-6.79,3.64,8.04
4670,36.69,241.19,-87.06,-6.78,4.19,8.89
4680,37.88,208.87,-80.31,-7.1,4.6,9.08
4690,28.62,162.44,-70.31,-7.39,4.93,9.59
4700,15.44,125.25,-55.44,-7.63,5.09,10.34
4710,4.81,85.5,-37.25,-7.49,4.83,10.26
4720,-5.37,44.81,-18.12,-7.24,4.51,10.13
4730,-16.62,6.25,-3.62,-7.22,4.31,9.9
4740,-21.94,-27.81,8.56,-7.26,4.19,9.59
4750,-17.12,-56.44,21.5,-7.2,4.02,9.06
4760,-9,-79.94,36.06,-7.12,3.68,8.37
4770,-5.81,-100.62,51.75,-6.71,2.4,6.83
4780,-10.81,-118.75,65.69,-6.29,1.64,6.33
4790,-25.19,-139.19,74.87,-5.92,0.92,5.96
4800,-45.38,-162.94,79.62,-5.32,-0.5,5.42
4810,-61.31,-186.56,77.81,-5.01,-0.93,5.29
4820,-63.63,-206.62,70.62,-4.66,-1.16,5.06
4830,-52.13,-223.75,59.69,-4.66,-0.77,4.04
4840,-32,-238.81,48.13,-5.03,-0.19,3.65
4850,-11.25,-251.94,45.06,-5.07,0.05,3.25
4860,2.06,-261.62,56,-4.85,-0.14,2.82
4870,3.5,-270.75,71.69,-4.21,-1.18,2.09
4880,-4.94,-284.75,84.69,-3.91,-1.85,2.03
4890,-12.31,-308.75,90.94,-2.29,-2.44,1.38
4900,-3.06,-316.56,83.62,-2.27,-3.32,-0.81
4910,31.31,-317.62,60.44,-1.93,-2.83,-2.49
4920,75.31,-308.81,39,-2.11,-2.18,-4.88
4930,90.81,-297.94,30.44,-1.23,-1.3,-6.66
4940,70.69,-283.81,32.38,-0.96,-0.46,-7.76
4950,60.06,-266.75,42.69,-0.18,-0.94,-8.89
4960,77.12,-244.75,58.63,0.29,-1.75,-10.61
4970,86.37,-225.81,70.87,1.04,-3.12,-14.37
4980,66.81,-208.25,75.31,1.2,-3.48,-15.31
4990,30.87,-188.25,78.19,1.36,-3.92,-15.79
5000,10.06,-159.19,82.94,1.72,-4.73,-16.29
5010,10.75,-124.44,87.5,2.3,-7.24,-18.27
5020,11.81,-89.37,84.12,2.78,-8.25,-19.14
5030,2.31,-50.19,68.87,3.49,-8.77,-19.53
5040,-12.63,0.69,41.56,3.23,-8.23,-17.4
5050,-18.75,65.44,7.62,2.59,-7.31,-15.07
5060,-13.06,130.75,-22.75,1.71,-6.2,-12.6
5070,-12.38,176.75,-44.38,0.84,-5.11,-10.41
5080,-20.87,195.94,-55.13,0.06,-3.85,-7.29
5090,-34.81,197.62,-59,-0.38,-3.47,-6.12
5100,-43.81,192.56,-61.63,-1.13,-3.3,-5.28
5110,-38.19,191.75,-67.25,-0.93,-2.58,-4.82
5120,-28.19,192.81,-73.87,-1.83,-2.4,-4.9
5130,-30.37,194.12,-84.25,-2.8,-1.38,-4.43
5140,-26.25,207.06,-91,-3.16,-0.82,-3.93
5150,-10.31,228.62,-89.75,-3.78,-0.59,-3.61
5160,-3.81,252.06,-94.19,-4.23,-0.28,-3.02
5170,-11.63,272.62,-95.62,-4.72,-0.16,-2.31
5180,-23.81,294.94,-96.06,-5.53,0.33,0.15
5190,-29.81,319.69,-98.62,-6.29,0.54,1.2
5200,-32.19,342.87,-98.81,-6.76,0.67,2.29
5210,-39.38,364.56,-97.25,-7.3,1.25,5.77
5220,-51.25,379.69,-97.56,-7.83,1.57,7.42
5230,-58.56,387.19,-98.06,-8.4,2,8.63
5240,-49.56,409,-96.25,-9.07,2.2,9.67
5250,-17.12,412.44,-90.56,-7.72,2.63,12.77
5260,10.31,328.81,-85.12,-8.5,3.14,13.24
5270,8.5,259.37,-85.75,-8.49,3.82,13.97
5280,-4.5,181.56,-76.5,-8.32,4.54,14.26
5290,-8.88,99.94,-59.31,-8.35,4.4,13.22
5300,-3.25,31.06,-38.88,-8.07,3.97,11.85
5310,3.62,-17.44,-21.12,-7.34,3.37,9.25
5320,4,-46.75,-10.56,-7.26,3.44,8.4
5330,-1.56,-63.88,-4.12,-7.25,3.51,7.92
5340,-8.69,-72.62,3.75,-7.2,3.54,7.88
5350,-14.69,-78.94,14.44,-7.32,3.27,8.24
5360,-17.19,-90.5,28,-7.16,2.79,8.37
5370,-17.44,-109.81,42.94,-6.83,2.03,8.27
5380,-21.06,-139.81,54.31,-6.32,0.66,7.25
5390,-28.94,-176.06,58.06,-6.15,0.35,6.81
5400,-35.19,-209.37,56.06,-5.95,0.31,6.35
5410,-31.75,-234.19,53.63,-5.94,0.38,5.88
5420,-16.19,-248.81,55.5,-6.24,0.07,4.26
5430,4.69,-253.81,63,-6.33,-0.2,3.69
5440,20.87,-257.19,73.06,-5.85,-0.66,3.2
5450,22.12,-268.87,84.06,-5.53,-1.66,2.55
5460,8.25,-294.62,88.19,-4.71,-1.71,2.88
5470,-2.25,-338.37,87.81,-4.07,-1.89,2.77
5480,5,-389.75,85.56,-4.69,-2.1,1.75
5490,48.63,-387.5,74.56,-4.12,-2.41,-2.41
5500,126.81,-366.5,72.19,-3.86,-2.82,-6.07
5510,167.06,-349.31,83.69,-2.54,-3.29,-9.02
5520,131.56,-333.19,95.87,-0.66,-4.87,-11.41
5530,72.81,-309.94,98.62,0.61,-5.74,-12.09
5540,40.19,-279.69,89,1.36,-6.27,-13.08
5550,25,-248.19,64.87,1.74,-6.3,-14.16
5560,6.06,-221.5,37.81,2.18,-5.94,-16.29
5570,-18.56,-199.56,15.31,2.31,-5.56,-17.01
5580,-38.31,-173.5,-3.25,2.18,-4.99,-17.52
5590,-40,-137.25,-17.56,2.08,-3.94,-18.5
5600,-25.31,-94.75,-23.75,1.95,-3.73,-19.18
5610,-8.31,-46.75,-24.06,2,-3.59,-19.67
5620,-2.69,7.25,-18.75,1.64,-4.04,-18.56
5630,-10.94,68.37,-10.38,1.51,-4.65,-16.49
5640,-23.44,131.5,-4.31,1.32,-5.24,-14
5650,-38.75,180.5,-6.87,0.98,-5.52,-11.62
5660,-50.06,209.5,-18.62,0.58,-5.33,-7.74
5670,-50.75,226.44,-36.69,0.04,-4.88,-6.27
5680,-44.5,236,-58.38,-0.64,-4.16,-4.91
5690,-32.38,240.44,-79.19,-2.02,-1.93,-3.04
5700,-14.25,244.06,-94.94,-2.01,-1.1,-3.07
5710,-1.56,248.44,-98.44,-2.75,-1.14,-3.25
5720,-20.87,248.62,-95.81,-3.59,-0.83,-2.38
5730,-55.06,253.87,-94.69,-3.96,-0.06,0.73
5740,-63.44,264.62,-86,-4.15,-0.47,1.72
5750,-50.5,275.94,-82.56,-4.38,-0.44,2.52
5760,-36.56,285.62,-89.25,-5.03,0.59,4.44
5770,-26.94,291.25,-97.31,-5.48,1.06,5.1
5780,-18.25,294.81,-99.5,-5.88,1.44,5.67
5790,-12.63,293.5,-95.12,-6.21,1.6,6.08
5800,-15.81,287.62,-87.62,-6.31,1.82,7.73
5810,-25.94,279.69,-82,-6.65,2.07,8.45
5820,-27.69,281.69,-78.44,-6.84,2.28,9.03
5830,-9.56,287.75,-73.44,-6.67,2.57,10.78
5840,16.31,268.06,-64.31,-6.93,2.51,10.79
5850,24,211.25,-54.88,-7.08,2.65,11.25
5860,6.5,159.81,-49.56,-7.06,3.02,12.38
5870,-18.19,97.5,-40.5,-6.91,2.75,12.24
5880,-28.87,37.88,-29.56,-6.8,2.39,11.69
5890,-20.44,-9.69,-22.94,-6.65,2.23,10.88
5900,-1.25,-41.81,-21.19,-6.9,2.87,8.89
5910,18.31,-59.19,-20.06,-6.95,3.35,8.11
5920,27.12,-69.12,-13.75,-7.14,3.77,7.7
5930,19.19,-81,-1.81,-7.3,4.07,7.54
5940,1.5,-98.37,14.94,-7.11,3.87,7.6
5950,-14.19,-123.25,35.38,-6.95,3.24,7.3
5960,-22.87,-153.44,57.06,-6.55,2.26,6.78
5970,-27.19,-182.87,74.37,-5.8,0.3,5.28
5980,-26.19,-207.25,83.81,-5.52,-0.46,4.59
5990,-18.81,-221.5,86.25,-5.09,-1.25,4.15
6000,-8.38,-226.44,82.87,-4.69,-2.27,3.46
6010,-1.81,-227.87,71.75,-4.03,-2.09,3.52
6020,-2.25,-229.12,55.19,-4.38,-2.16,3.44
6030,-9.56,-243.25,38.69,-4.2,-1.89,4.11
6040,-4.37,-274,21.25,-4.54,-0.45,3.64
6050,20.06,-307.94,17.37,-4.35,-0.67,2.19
6060,30.37,-382.56,28.62,-3.51,-0.2,0.16
6070,30.37,-382.56,28.62,-3.78,-0.05,-2.8
6080,60.69,-388.62,39.81,-2.81,-1.08,-5.61
6090,114.69,-386.62,52.56,-2.33,-2.11,-9.5
6100,135.44,-380.12,62.31,-0.72,-4.02,-16.94
6110,6.56,-349.19,63.81,0.58,-4.37,-18.79
6120,6.56,-349.19,63.81,1.41,-4.56,-19.54
6130,-45.31,-290.87,52.44,2.28,-4.93,-19.85
6140,-46.44,-209.25,37.31,2.94,-5.5,-20.34
6150,-30.37,-128.25,19.44,2.88,-5.43,-20.04
6160,-50.19,-21.19,-8.25,2.71,-5.04,-19
6170,-50.19,-21.19,-8.25,2.99,-4.08,-16.69
6180,-48.19,10.38,-14.38,2.96,-4.14,-16.57
6190,7.69,90.44,-27.06,2.23,-3.92,-16.44
6200,7.69,90.44,-27.06,1.56,-3.44,-15.49
6210,-8.56,170.31,-33.63,0.76,-2.78,-11.82
6220,-8.56,170.31,-33.63,0.31,-2.58,-10.21
6230,-19.62,191.44,-37.06,-0.14,-2.36,-9.01
6240,-28.44,212.25,-48.75,-0.95,-1.37,-7.11
6250,-35.25,216.87,-50.63,-1.66,-0.77,-6.32
6260,-35.25,216.87,-50.63,-2.05,-0.34,-5.52
6270,-40.88,222.19,-46.75,-2.95,-0.07,-4.71
6280,-40,232.37,-40.25,-3.09,0.28,-3.42
6290,-30.94,250.62,-27.37,-3.5,-0.72,-3.44
6300,-68.25,279.12,-15.06,-3.64,-1.48,-2.32
6310,-75.5,293.19,-18.62,-4.34,-1.28,1.88
6320,-52.25,302.69,-23.62,-4.47,-1.58,3.1
6330,-31.56,300.31,-38,-4.45,-1.62,3.64
6340,-33.25,287.94,-54.38,-4.93,-0.6,4.8
6350,-48.5,274.19,-65.5,-5.46,0.15,5.5
6360,-59.19,263.75,-65.56,-5.92,0.93,6.44
6370,-59.19,253.31,-54.19,-6.34,1.36,7.29
6380,-52.69,244.19,-39.75,-6.01,1.24,8.76
6390,-38.5,242.62,-29.5,-6.06,0.97,8.99
6400,-19.62,239,-23.31,-6.21,0.89,8.99
6410,-19.62,239,-23.31,-5.84,0.69,10.26
6420,-5.56,178.31,-18.44,-5.92,0.64,10.53
6430,-18.94,136.5,-19.62,-6.13,0.78,11.36
6440,-28.69,86.5,-17.06,-6.16,1.06,12.01
6450,-27.12,37.81,-12.38,-6.14,1.31,12.31
6460,-27.12,37.81,-12.38,-6.12,1.49,12
6470,-14.06,-3.12,-7.94,-6.09,1.7,11.27
6480,22,-57.81,7.44,-6.21,1.85,9.14
6490,25.12,-72.5,18.44,-6.11,1.79,8.42
6500,17.06,-85.75,29.5,-6.03,1.61,7.98
6510,17.06,-85.75,29.5,-5.9,1.25,7.72
6520,3.37,-101.31,39.19,-5.2,-0.06,7.14
6530,-26.94,-148.87,45.44,-4.84,-0.81,6.86
6540,-32.5,-171.62,38.44,-4.45,-1.34,6.64
6550,-26.12,-188.25,28.37,-4.32,-1.52,5.9
6560,-26.12,-188.25,28.37,-4.28,-1.26,5.76
6570,-7.94,-197.94,20.44,-4.24,-0.84,5.54
6580,48.25,-203.31,24.87,-4.47,-0.35,4.64
6590,70.69,-200.19,37.69,-4.61,-0.49,4.13
6600,76.12,-196.69,50.06,-4.5,-0.85,3.77
6610,76.12,-196.69,50.06,-4.5,-0.85,3.77
6620,61.56,-211.75,58.88,-3.32,-2.45,4.2
6630,49.06,-305.19,48.25,-2.85,-2.26,4.17
6640,63.56,-335.44,43.56,-2.6,-2.63,2.2
6650,65,-333.12,31.81,-1.1,-2.89,-2.97
6660,65,-333.12,31.81,-1.1,-2.89,-2.97
6670,57.94,-324.06,16.81,-1.26,-2.16,-4.19
6680,102.19,-266.69,8.63,-0.12,-0.82,-5.6
6690,110.5,-248.75,17.94,-0.22,-1.05,-9.8
6700,74.69,-243.81,30.69,0.28,-1.12,-11.55
6710,74.69,-243.81,30.69,0.28,-1.12,-11.55
6720,25.75,-243.25,46.5,0.93,-1.37,-12.77
6730,-10.13,-204.69,49.63,2.44,-4.01,-16.11
6740,-11.63,-172.06,35.5,2.93,-4.44,-17.42
6750,-21.5,-138.06,19.19,3.29,-4.67,-18.65
6760,-21.5,-138.06,19.19,3.29,-4.67,-18.65
6770,-33.63,-99.75,4.87,3.1,-4.28,-20.26
6780,-24.06,18.25,-9.81,3.14,-3.8,-20.8
6790,-21.69,97,-14.31,2.33,-3.08,-18.26
6800,-38.31,166.06,-16.69,1.49,-2.68,-15.02
6810,-38.31,166.06,-16.69,1.49,-2.68,-15.02
6820,-62.25,209.06,-16.69,0.62,-2.39,-11.46
6830,-85.75,208.06,-17.25,-0.41,-2.19,-4.69
6840,-84.81,184.5,-21.12,-0.58,-2.05,-3.85
6850,-74.31,162.94,-25.5,-0.67,-1.81,-3.77
6860,-74.31,162.94,-25.5,-0.67,-1.81,-3.77
6870,-57.81,159.37,-29,-1.74,-0.88,-4.85
6880,-48.63,199.44,-22.56,-2.4,-1.38,-5.74
6890,-48.63,199.44,-22.56,-3.6,-0.78,-2.61
6900,-60.19,230.69,-24.44,-4.07,-0.93,-0.98
6910,-42.19,268.19,-22.19,-4.07,-0.93,-0.98
6920,-7,300.81,-24.06,-4.44,-1.32,0.15
6930,18.44,324.06,-34,-5.16,-1.2,3.99
6940,27.25,334.19,-46.56,-5.59,-0.79,5.27
6950,24.81,330.56,-58.31,-5.85,-0.35,6.46
6960,21.62,317.5,-65.12,-5.85,-0.35,6.46
6970,21.56,296.06,-65.81,-5.99,0.55,8.59
6980,28.25,275.56,-62.31,-6.28,1.06,9.11
6990,44.63,266.19,-59.75,-6.28,1.38,9.08
7000,65.69,254.94,-58.19,-6.44,2.37,9.31
7010,83.62,241.5,-57.31,-6.44,2.37,9.31
7020,91.31,201.06,-52.38,-6.35,2.9,9.75
7030,82.94,159.31,-44.25,-7.14,4.12,10.08
7040,57.13,119.75,-30.25,-7.12,4.19,10.43
7050,25,76.37,-11.5,-6.97,4,10.74
7060,5.44,36.75,9.5,-6.97,4,10.74
7070,5,4.19,27.81,-6.39,2.69,10.34
7080,14.19,-18.81,37.75,-6.1,1.61,9.51
7090,22.12,-36.5,39.88,-5.98,1.47,9.33
7100,22.06,-56.88,37.75,-5.88,1.42,8.63
7110,14.25,-81.56,36.19,-5.88,1.42,8.63
7120,3.31,-109.06,36.69,-5.88,1.34,8.29
7130,-3,-134.62,38.19,-5.55,0.74,7.59
7140,1.37,-158.94,42.06,-5.42,0.42,7.2
7150,16.19,-182.94,45.94,-5.33,0.11,6.52
7160,35.31,-204.75,47.81,-5.33,0.11,6.52
7170,49.13,-225.25,48.06,-5.01,-0.06,5.78
7180,56.94,-242.19,48.5,-4.22,0.21,3.99
7190,63.69,-259.5,52.25,-4.32,0.5,3.94
7200,70.94,-280.56,52.75,-4.39,1.1,3.37
7210,85.69,-297.75,60.19,-4.39,1.1,3.37
7220,101.94,-306.25,78.06,-4.19,0.88,2.31
7230,116.12,-290.75,95.31,-3.11,-0.63,-0.04
7240,137.56,-271.06,104.44,-2.24,-2.18,-4.16
7250,134.69,-260,116.37,-0.52,-2.88,-5.86
7260,76.87,-257.37,123,-0.52,-2.88,-5.86
7270,-8.94,-261.81,121.19,0.53,-3.28,-6.06
7280,-49.31,-264.12,111.44,1.36,-4.18,-7.2
7290,-32.44,-265.5,99.87,2.11,-4.55,-9.9
7300,-8.06,-265.19,94.62,2.3,-5.48,-14.93
7310,-10.25,-258.19,93.25,2.3,-5.48,-14.93
7320,-23.44,-238.31,95.62,2.75,-6.5,-16.79
7330,-26.87,-199.62,93.94,3.75,-9.25,-20.14
7340,-23.75,-144.87,76.19,3.98,-10.07,-21.31
7350,-21.87,-82.25,42.06,4.1,-9.26,-20.9
7360,-19.25,-16.69,1.87,4.1,-9.26,-20.9
7370,-10.38,49.19,-31.31,3.73,-8.06,-19.78
7380,3.87,111.81,-54,1.58,-4.31,-13.31
7390,13.88,165.81,-65.62,0.43,-3.29,-10.78
7400,14.19,203.31,-70.37,-0.36,-2.52,-8.59
7410,10.56,218.94,-67.56,-0.36,-2.52,-8.59
7420,0.75,218.94,-62.19,-0.79,-2.33,-6.05
7430,-16.94,213.19,-59.44,-1.33,-2.21,-4.49
7440,-33.31,206.56,-58.75,-1.99,-1.75,-3.49
7450,-40.44,205.56,-61.13,-2.06,-1.68,-3.18
7460,-41.38,211.31,-63.31,-2.06,-1.68,-3.18
7470,-52.69,212.25,-68.62,-2.28,-1.86,-3.1
7480,-68.81,215.06,-75.94,-3.24,-1.55,-2.46
7490,-64.31,225.44,-74.5,-3.73,-0.97,-0.99
7500,-46.75,243,-74.75,-3.8,-1.26,-0.75
7510,-38.38,265.12,-83.19,-4.39,-1.22,-0.28
7520,-42.13,284.12,-90.12,-5.28,-0.15,1.74
7530,-54.13,298.12,-87.62,-5.59,-0.04,2.73
7540,-71.87,303,-82.44,-5.99,0.03,3.95
7550,-81.62,302,-79,-6.17,0.15,5.17
7560,-73.87,301.37,-77.56,-6.35,0.53,7.51
7570,-55.31,300.37,-80.31,-6.46,0.77,8.32
7580,-31,308.37,-85.94,-6.73,1.37,8.77
7590,0,310.12,-86.62,-7.32,2.8,10.34
7600,26.81,254.19,-79.25,-6.78,3.37,10.89
7610,30.81,196.06,-71.19,-7.57,4.11,11.11
7620,12.5,139.5,-53.75,-7.49,4.75,11.63
7630,-13.88,80.37,-34.06,-7.51,4.86,11.72
7640,-24.25,28.62,-12.88,-7.39,4.8,11.51
7650,-12.94,-10.81,9.94,-7.03,4.44,10.89
7660,8.88,-32.94,28.5,-6.51,2.85,8.38
7670,23.37,-38.13,37.75,-6.17,2.08,7.36
7680,17.75,-40.88,37.81,-5.97,1.65,6.92
7690,-3.12,-52.69,33.63,-5.8,1.79,7.69
7700,-23.37,-78.62,33.06,-5.76,1.93,8.03
7710,-33.44,-111.44,37.44,-5.66,1.65,7.78
7720,-36.69,-141.5,40.06,-5.44,1.17,7.28
7730,-36.25,-167.37,37.38,-5,1.05,6.24
7740,-29.69,-189.81,36.56,-5.01,1.34,5.65
7750,-17.69,-204.94,43.44,-5.04,1.44,5.02
7760,-7.31,-213.25,53.94,-4.77,0.66,3.56
7770,-3.87,-215.75,63.13,-4.62,0.21,3.26
7780,-5.81,-213.37,68.06,-4.17,-0.19,3.21
7790,-10.94,-214.62,67.31,-3.73,-0.67,3.33
7800,-24.69,-230.06,60.94,-2.99,-1.51,2.89
7810,-47.81,-264.44,52.81,-1.97,-1.59,3.05
7820,-66.5,-312.37,45.44,-2.06,-1.8,3.34
7830,-48.38,-332.75,38.5,-1.96,-1.68,1.35
7840,1.37,-317.31,42.5,-1.58,-2.21,-1.05
7850,28,-310.25,48.81,-0.06,-2.76,-3.53
7860,29.62,-295.62,49.13,0.78,-3.24,-6.13
7870,50.56,-267.12,45,1.59,-3.62,-7.38
7880,79.5,-233.25,34.13,1.98,-4.12,-9.47
7890,65.12,-211,16.44,2.49,-4,-11.65
7900,13.88,-203.94,6.44,2.57,-2.6,-13.28
7910,-15.56,-198.25,7.44,2.84,-2.43,-13.83
7920,-7.94,-181.44,10.75,3.01,-2.78,-15.39
7930,0.88,-149.25,9.63,3.51,-3.75,-19.34
7940,-9.69,-102.75,1.37,3.63,-3.74,-20.19
7950,-24.37,-43.19,-9.56,3.51,-3.35,-19.92
7960,-21.19,26.06,-14.75,3.18,-2.76,-18.89
7970,-7.94,95.31,-14.63,2.38,-2.28,-15.23
7980,-7.44,151.37,-13.13,1.88,-2.11,-12.85
7990,-18.62,186.44,-9.94,1.17,-2.01,-10.41
8000,-29.44,203.87,-5.31,0.68,-2.45,-5.94
8010,-36,203.5,-3.69,0.43,-2.86,-4.34
8020,-35.13,192,-7.19,0.31,-3.14,-3.14
8030,-24.75,176.12,-16.94,0.22,-3.34,-2.63
8040,-10.69,165.87,-33.13,-0.27,-3.04,-2.79
8050,4,166.94,-50.5,-0.79,-2.18,-2.98
8060,15,176.5,-59.63,-0.86,-1.36,-3.31
8070,4.87,187.69,-64.31,-2.16,-0.55,-3.37
8080,-11.44,204.5,-64.12,-2.96,0.15,-2.25
8090,-5.62,227.19,-55.81,-3.37,0.34,-1.12
8100,11.63,249.06,-50.06,-3.43,-0.31,0.28
8110,13.19,263.19,-52.19,-3.75,-0.35,0.84
8120,-1.94,268.87,-56,-4.25,-0.24,1.75
8130,-16.62,270,-57.06,-4.77,-0.11,2.84
8140,-23.06,267.06,-56.56,-4.76,0.11,5.08
8150,-23.12,260.75,-57.69,-5.01,0.18,5.91
8160,-18.12,251.56,-60.94,-5.06,0.36,6.74
8170,-10.13,238.31,-64.87,-5.25,1.06,8
8180,-2.25,233.31,-67.94,-5.48,1.42,8.07
8190,3.31,230.5,-69.5,-5.6,1.69,8.06
8200,3.56,217.81,-68,-6,2.19,8.09
8210,-2.56,171.19,-60.06,-6.24,3.24,9.99
8220,-18.62,124.19,-49.19,-6.57,3.63,10.8
8230,-30.94,76.56,-31.12,-6.63,3.76,11.66
8240,-23.12,30.87,-11.56,-6.49,3.4,12.15
8250,3.06,-6.31,5.25,-6.41,3.16,11.53
8260,31.31,-34.38,19.31,-6.43,3.01,10.58
8270,46.81,-54.44,31.62,-6.37,2.97,9.55
8280,42.94,-72.75,43.38,-6.2,2.56,7.88
8290,20.12,-96.25,53.5,-5.9,2.16,7.39
8300,-9.75,-125.69,61.5,-5.54,1.63,7.13
8310,-30.06,-155.12,66.06,-4.87,0.31,6.31
8320,-33.56,-179.62,67.19,-4.51,-0.18,5.77
8330,-23,-197.44,67,-4.19,-0.62,5.25
8340,-4.81,-208.69,66.56,-3.75,-1.28,4.03
8350,12.5,-217.69,65.94,-3.45,-1.37,3.87
8360,25.81,-227.69,66.69,-3.23,-1.44,3.71
8370,38.19,-235.37,68.62,-2.93,-1.62,3.6
8380,50.75,-241.81,70.37,-2.54,-2.35,3.21
8390,71.81,-245.5,63.56,-1.79,-2.18,3.23
8400,117.5,-227.44,55.13,-2.03,-1.58,2.47
8410,147.62,-224.69,59.13,-1.61,-2.15,-2.38
8420,114.94,-226.5,61.06,-0.74,-2.04,-3.6
8430,46.19,-232.31,59.69,-0.57,-2.16,-3.42
8440,7,-242.06,55.5,0.19,-2.39,-2.75
8450,15,-258.06,49.5,0.76,-3.03,-4.41
8460,33.94,-275.69,44.88,1.4,-3.55,-6.79
8470,31.62,-283.81,37.94,1.58,-3.82,-9.12
8480,16.56,-278.75,28.87,2.33,-3.85,-12.82
8490,9.5,-258.31,16.44,2.57,-3.61,-14.2
8500,16.44,-221.94,5,2.71,-3.38,-15.6
8510,26,-171.25,-6,2.86,-3.12,-17.16
8520,19.31,-114.37,-12.38,2.26,-2.51,-19.71
8530,-8.88,-52.63,-11.63,2.33,-2.13,-19.73
8540,-38.19,12,-6.12,2.29,-2.04,-18.73
8550,-48.75,75.81,-0.37,1.8,-2.16,-14.45
8560,-44.06,129.94,2.94,1.5,-2.44,-11.99
8570,-35.63,164.12,0.88,1.14,-2.41,-9.74
8580,-27.31,180,-2.62,0.63,-2.31,-6.87
8590,-24.12,185.56,-7.56,0.28,-2.18,-6
8600,-25,189.12,-13.19,-0.08,-1.98,-5.26
8610,-25.87,193.75,-18,-0.73,-1.88,-4.51
8620,-21.87,204.31,-20.62,-0.94,-1.09,-3.24
8630,-26.87,212.62,-19.69,-1.53,-1.46,-3.02
8640,-51.38,212.06,-23.06,-1.72,-1.2,-2.17
8650,-66.56,210.12,-23.44,-2.45,-1,0.13
8660,-53.38,218,-21.37,-2.38,-1.13,0.79
8670,-24.25,234.69,-22.5,-2.54,-1.54,1.27
8680,-6.69,248.37,-32.38,-2.92,-1.53,1.59
8690,-8.44,254.87,-43.63,-3.39,-0.7,3.28
8700,-17.75,253.25,-51.13,-3.99,-0.07,4.3
8710,-19.75,248,-50.94,-4.36,0.34,5.19
8720,-13.56,238.75,-45.25,-4.42,1.02,6.62
8730,-5.81,226.87,-37.56,-4.38,0.95,6.92
8740,0.19,214.56,-32.5,-4.4,0.87,7.21
8750,1.31,200.06,-30.56,-4.48,1.01,7.48
8760,-0.81,190.06,-27.75,-4.67,1.18,8.04
8770,-3.69,177.69,-23.87,-4.66,1.1,8.12
8780,-8.19,165.44,-23.94,-4.68,1.03,8.12
8790,-11.69,152.06,-27.12,-5.1,1.53,9.22
8800,-11.75,119.25,-24.31,-4.78,1.7,9.9
8810,-12.44,78.5,-21.19,-5.09,1.92,10.38
8820,-11.31,38.94,-15.94,-5.4,2.49,10.84
8830,-1.56,2.12,-7.44,-5.62,2.72,10.59
8840,17.06,-27.62,4.06,-5.68,2.92,10.13
8850,36.44,-50.56,18.44,-5.67,2.92,9.45
8860,45.63,-70.62,31.87,-5.5,2.46,7.89
8870,39.06,-94.37,43.44,-5.21,2.16,7.19
8880,22.12,-121.75,52.13,-4.89,1.78,6.51
8890,5.37,-147.06,56.75,-4.46,1.03,5.37
8900,0.06,-165.44,58.44,-4.15,0.88,5.12
8910,9.94,-174,58.88,-4.13,0.81,4.82
8920,29,-175.31,59.38,-4.12,0.94,4.52
8930,46.88,-176.62,61.5,-3.88,1.44,3.87
8940,57.19,-186.12,69.31,-3.92,1.67,3.38
8950,55.81,-197.69,84.44,-3.84,1.46,2.89
8960,40.19,-204.81,99.87,-3.36,0.07,2.21
8970,14.06,-214,109.12,-2.83,-0.84,3.01
8980,2.06,-238.19,105.62,-2.12,-1.09,3.88
8990,18.06,-257.62,98.81,-2.27,-1.13,3.83
9000,33.13,-282.06,91.69,-1.55,-1.15,0.95
9010,36.38,-299.69,86.12,-1.69,-0.69,-0.14
9020,57.75,-312.12,90.25,-1.57,-0.45,-1.63
9030,97.19,-303.75,106.19,-0.86,-2.33,-7.26
9040,101,-287.56,124.06,-0.06,-3.75,-10.6
9050,40.25,-272.5,131.69,0.8,-5.05,-12.91
9060,-42.5,-252.87,129.56,2.12,-7.44,-14.13
9070,-86.75,-222.19,114,3.05,-8.35,-13.96
9080,-73.75,-183.44,79.44,3.43,-8.63,-14.11
9090,-23.5,-140.69,39.94,3.44,-8.56,-15.19
9100,16.87,-97.62,6,2.88,-7.59,-18.78
9110,20.25,-54.94,-15.44,2.76,-6.7,-19.69
9120,5.12,-5.12,-21.87,2.63,-6.01,-19.75
9130,-5.19,58.5,-21.37,2.27,-5.53,-17.76
9140,-16.12,129.5,-21.75,1.95,-5.62,-15.19
9150,-37.63,187.62,-28.37,1.43,-5.42,-11.97
9160,-55.88,219.44,-39.38,0.83,-5.02,-8.82
9170,-59,228.56,-51.19,0.34,-4.19,-4.17
9180,-51.63,222.94,-64.56,0.03,-3.66,-2.88
9190,-40.31,210.87,-78.5,-0.5,-2.92,-1.8
9200,-21.25,197.94,-88.37,-1.04,-0.7,-1.11
9210,-3.5,186.44,-85.56,-1.53,-0.8,-2.12
9220,-10.56,180.12,-83.19,-1.68,-0.66,-2.81
9230,-26.19,193.44,-85.44,-2.56,-0.28,-2.31
9240,-17.5,223.12,-81.12,-3.24,0.32,-0.28
9250,2.12,254.87,-76.87,-3.43,-0.12,0.34
9260,4.31,276.69,-82.19,-3.8,-0.26,0.97
9270,4.31,276.69,-82.19,-4.62,0.46,3.34
9280,-9.63,289.19,-90.94,-5.12,0.94,4.64
9290,-37.56,285.44,-95,-5.65,1.31,5.89
9300,-40.94,272.44,-87.94,-5.77,1.86,8.13
9310,-37.31,257.75,-79.75,-6.02,1.86,8.67
9320,-37.31,257.75,-79.75,-6.03,1.98,8.91
9330,-4.25,234.87,-71.5,-5.88,2.06,8.74
9340,5.87,205.5,-68.06,-5.99,2.79,9.38
9350,-0.31,154.31,-62.44,-6.43,3.11,9.68
9360,-18.87,113.25,-52.94,-6.52,3.37,10.33
9370,-18.87,113.25,-52.94,-6.49,3.23,11.21
9380,-33.31,69.75,-37.69,-6.49,2.93,11.2
9390,-20.75,2.81,-9.25,-6.53,2.52,10.92
9400,-4.37,-20.19,-0.25,-6.36,2.12,10.43
9410,4.81,-42.06,4.69,-6.14,1.77,9.36
9420,4.81,-42.06,4.69,-6.07,1.59,8.78
9430,5.25,-64.56,8.69,-5.95,1.5,8.4
9440,-12.81,-109.56,14.06,-5.76,1.49,7.76
9450,-23.12,-136.25,19,-5.62,1.46,7.43
9460,-26.81,-163.75,27.75,-5.43,1.27,6.82
9470,-26.81,-163.75,27.75,-5.43,1.27,6.82
9480,-25.12,-189.87,40.88,-5.09,0.74,6.03
9490,-18.25,-232.75,58.25,-3.56,-1.82,3.83
9500,-15.13,-256.37,54.94,-3.04,-2.49,3.58
9510,-13.25,-272.44,41.13,-2.39,-2.87,2.91
9520,-13.25,-272.44,41.13,-2.39,-2.87,2.91
9530,-8.38,-282.81,21.25,-1.57,-1.89,1.42
9540,40.31,-262.37,-2.19,-1.42,-1.65,-1.8
9550,59.19,-250.37,-8.06,-1.12,-1.05,-2.91
9560,67.19,-237.56,-3.44,-0.8,-0.72,-4.27
9570,67.19,-237.56,-3.44,-0.8,-0.72,-4.27
9580,55.5,-230.69,10.19,-0.18,-0.98,-5.63
9590,23.69,-206.94,20.62,1.79,-1.47,-7.94
9600,19.87,-197.37,22.69,2.29,-1.7,-8.67
9610,24,-187.87,22,2.76,-2.67,-11.31
9620,24,-187.87,22,2.76,-2.67,-11.31
9630,25,-173.56,14.13,3.06,-2.48,-12.95
9640,-17.44,-141.75,17.19,3.33,-1.79,-13.89
9650,1.75,-110.25,27.37,4.02,-3.24,-15.58
9660,30.19,-65.62,28.69,4.21,-3.85,-17.18
9670,30.19,-65.62,28.69,4.21,-3.85,-17.18
9680,29.37,-8.31,21.25,4.5,-4.01,-17.7
9690,-3.69,124.87,2.87,3.17,-3.64,-11.05
9700,-12.38,167,-7,2.64,-3.21,-8.14
9710,-17.19,180.87,-17.25,1.97,-2.66,-5.65
9720,-17.19,180.87,-17.25,1.97,-2.66,-5.65
9730,-13.13,175.37,-24.44,1.03,-1.84,-2.75
9740,-5.56,139.12,-34,0.89,-1.08,-2.63
9750,-13.69,125.94,-39.13,-0.27,0.02,-3.02
9760,-15.31,129,-39.25,-0.84,0.47,-2.91
9770,-15.31,129,-39.25,-0.84,0.47,-2.91
9780,-3.62,146,-31.75,-1.2,0.27,-2.93
9790,6.31,170.75,-29.5,-2.01,-0.06,-1.51
9800,1.62,194.12,-36.13,-2.55,0.3,-0.36
9810,-12.88,210.87,-43.25,-3.11,0.76,0.94
9820,-23.75,221.31,-46.44,-3.11,0.76,0.94
9830,-23.37,229.25,-43.63,-3.85,1.52,3.4
9840,-17.19,233.37,-36.19,-4.23,1.44,4.97
9850,-15.38,231.94,-27.62,-4.25,1.34,7.01
9860,-18.25,224.94,-23.37,-4.32,1.39,7.8
9870,-20.19,212,-22.44,-4.32,1.39,7.8
9880,-18.87,194.25,-22.87,-4.44,1.53,8.35
9890,-13.19,178.31,-23.19,-4.59,2.25,8.95
9900,-2.31,161.44,-22.19,-4.85,2.43,8.79
9910,7.75,141.37,-20.06,-4.94,2.67,8.66
9920,12.19,119.06,-15.75,-4.94,2.67,8.66
9930,9.69,92.87,-8.44,-4.96,2.84,9.21
9940,6,61.13,0.19,-5.08,2.66,9.38
9950,3.31,30.12,9.13,-5.21,2.4,9.39
9960,-1.06,3.12,18.12,-5.04,1.82,9.39
9970,-4,-21.12,24.81,-5.04,1.82,9.39
9980,-4,-45.63,27.81,-5,1.66,9.3
9990,-2.37,-70.81,28.56,-4.88,1.09,7.85
10000,-4.56,-97.94,29.31,-4.68,0.99,7.21
