timestamp,gyrox,gyroy,gyroz,accx,accy,accz
10,33.69,22.06,32.63,-0.23,0.35,-0.23
20,33.5,30.06,38.5,0.1,0.22,0.79
30,42.56,33.13,40.31,0.06,0.34,1.1
40,54,31.06,39.94,0.03,0.37,1.06
50,62.25,25.25,40.13,0.03,0.09,0.7
60,62.75,16.87,41.5,0.15,-0.21,0.35
70,58.19,7.75,42.69,0.07,-0.43,0.25
80,51.25,3.12,41.13,0.02,-0.55,0.75
90,50.88,0.25,37.44,0.34,-1.08,1.24
100,51.63,-8.94,31.12,0.38,-1.07,1
110,48.13,-22.69,22.81,0.41,-0.98,0.53
120,44.56,-32.5,14.25,0.3,-0.5,-0.66
130,40.94,-33.44,5.75,0.24,-0.19,-0.95
140,35.44,-27.06,0.37,0.15,0.19,-0.9
150,29.81,-16.81,-1.56,0.11,0.46,-0.94
160,24.31,-7.31,0.37,-0.15,0.46,-0.51
170,19.69,1.94,5.19,-0.05,0.34,0.05
180,20.25,7.56,10.81,0.01,0.18,0.38
190,24.12,7.5,15.13,-0.02,-0.1,0.11
200,23.81,6.5,17.56,-0.06,-0.03,0.43
210,21.5,6.81,18.44,0.02,-0.01,0.53
220,24.81,6.44,19.44,0.04,0.01,0.46
230,31,6.06,20,0.14,0.16,0.11
240,37.44,6.56,20.56,-0.01,0.41,0.15
250,43.75,9.38,21.81,-0.11,0.52,0.42
260,52.5,9.88,26.19,0.1,0.05,0.77
270,59.19,6,29.5,0.25,-0.13,0.74
280,63.94,-1,29.31,0.26,-0.2,0.5
290,66.12,-6.5,25.87,0.29,-0.1,0.09
300,64.25,-9.44,21.37,0.24,-0.12,-0.32
310,58.56,-9.88,18.44,0.17,-0.13,-0.64
320,47.31,-7.75,16.56,0.13,0.02,-0.57
330,38.69,-2.19,15.06,0.23,0.52,-0.33
340,35.5,7,12,-0.37,0.59,0.46
350,33.31,11.31,15.56,0.06,0.25,0.97
360,41.06,11.38,20.81,0.34,0.11,2.69
370,56.56,5.81,24.37,0.8,-0.09,3.36
380,81.87,-8.88,29.5,1.18,-0.41,3.06
390,101.62,-33.63,33.94,1.32,-0.62,2.34
400,104.56,-58.19,37.5,2.92,-2.65,-1.19
410,88,-64.81,26.69,2.58,-2.4,-1.37
420,63.56,-58.13,10.44,1.86,-2.13,-1.4
430,56.25,-45.13,7,3.02,-3.42,-1.48
440,51.69,-30.12,3.19,3.33,-3.72,-1.02
450,38.69,-19,-10.88,3.5,-3.87,-0.35
460,34.63,-8.75,-31.25,3.7,-4.21,0.47
470,38.38,-2.5,-55.81,2.28,-4.31,1.2
480,33.06,-11.13,-75.12,1.05,-4.07,0.75
490,32.19,-24.12,-81.19,0.16,-4.24,0.02
500,46.69,-28.19,-76.44,-1.02,-5.78,-1.31
510,63.81,-27,-67.44,-1.73,-6.93,-2.16
520,72.87,-22.87,-60.13,-2.66,-8.19,-2.93
530,69.87,-8.56,-63.25,-3.67,-9.76,-1.91
540,43.25,6.5,-78.31,-4.46,-10.19,-1.35
550,43.25,23,-108.31,-5.04,-10.16,-1.15
560,63.38,44.63,-158.37,-6.47,-8.48,0.05
570,75.94,57.25,-211.37,-10.18,-2.68,2.36
580,82.19,50.06,-234.25,-10.54,-1.9,2.27
590,81.81,42.13,-235.31,-10.68,-1.25,2.04
600,87.31,31.37,-233.69,-10.33,1.45,1.11
610,94.19,3.56,-229.56,-10.41,3.44,0.79
620,99.31,-25.06,-226.06,-9.89,5.05,0.09
630,106.12,-48.13,-219.37,-8.82,5.98,-0.76
640,101.75,-64.56,-227.06,-7.77,7.23,-0.87
650,93.44,-74.44,-259.31,-13.66,11.57,-0.43
660,91.94,-66.06,-221.12,-8.8,12.08,-0.34
670,99.31,-53,-157.25,-7.31,12.55,-0.17
680,56.75,-58.25,-115.5,-5.83,12.56,1.57
690,12.63,-66.94,-79.44,-4.51,12.44,2.92
700,7.31,-71.31,-51.56,-3.17,12.36,3.36
710,9.75,-83.37,-29.62,-0.63,13.53,4.24
720,6.87,-106.25,-12.06,0.41,14.51,3.82
730,6.87,-106.25,-12.06,1.63,15.1,2.14
740,22.06,-146.25,37.94,4.24,14.75,-1.47
750,0.69,-160.44,75.19,5.25,13.8,-2.31
760,-32.69,-176.12,118.44,5.79,12.55,-2.23
770,-63.88,-198.56,166.06,6.95,10.48,-2.03
780,-63.88,-198.56,166.06,9.26,4.9,-7.93
790,-75.81,-204.31,203,10.4,3.18,-7.41
800,-71.75,-98.62,204.81,11.35,1.55,-6.65
810,-58.13,-67.69,189.87,11.06,-0.61,-7.09
820,-46.5,-47.81,172.5,10.43,-1.33,-7.83
830,-46.5,-47.81,172.5,9.77,-2.31,-8.54
840,-40.63,-24.87,159.5,8.17,-4.67,-8.14
850,-69.69,36.13,143.94,7.1,-5.69,-7.11
860,-81.37,69.56,133.81,5.82,-6.78,-6.2
870,-84.06,100.06,121.37,4.81,-7.62,-4.63
880,-84.06,100.06,121.37,3.35,-9.03,-2.73
890,-79.69,120.56,108.06,2.22,-9.07,-2.59
900,-42.19,147.37,71.56,0.94,-8.62,-1.53
910,-40.88,151.62,61.69,-1.46,-8.61,0.61
920,-32.06,142.94,64.31,-2.56,-9.14,0.64
930,-32.06,142.94,64.31,-3.49,-9.69,0.14
940,-11.44,127.25,79.06,-4.14,-10.29,-0.63
950,33.06,112.19,123,-1.24,-13.05,-1.65
960,42.75,112.81,118.69,-3.67,-13.82,-1.8
970,39.13,109,57.19,-4.8,-12.92,-0.72
980,39.13,109,57.19,-6.48,-9.84,-0.5
990,53.75,109.75,10.31,-6.48,-9.84,-0.5
1000,88.06,109.5,-52.75,-8.34,-6.71,-0.45
1010,88.19,111.44,-65.56,-9.67,-4.68,1.15
1020,96.62,115.94,-74.69,-10.35,-4.07,1.66
1030,96.62,115.94,-74.69,-10.35,-4.07,1.66
1040,108.69,121.5,-79.12,-10.69,-2.98,2.36
1050,117.06,140.5,-89.69,-9.97,-0.65,2.87
1060,143.37,159.12,-103.5,-11.33,1.53,5.4
1070,168.69,118.31,-108.12,-11.06,3.25,5.93
1080,168.69,118.31,-108.12,-11.06,3.25,5.93
1090,177.25,38.63,-91.06,-11.53,5.46,4.08
1100,160.62,-96,-30.75,-10.12,4.07,-0.55
1110,146.12,-142,-2.81,-9,2.78,-2.74
1120,119.06,-184.25,11.38,-6.73,1.15,-2.24
1130,119.06,-184.25,11.38,-6.73,1.15,-2.24
1140,95.12,-238.81,8.56,-5.54,1.26,-4.31
1150,140.87,-155.06,-52.56,-4.5,5.82,-7.93
1160,141.87,-90.69,-89.31,-4.16,8,-5.75
1170,118.37,-46.75,-105.62,-2.39,8.29,-3.98
1180,118.37,-46.75,-105.62,-2.39,8.29,-3.98
1190,76,-34.06,-125.12,-2.06,8.35,-2.3
1200,20.87,-58.19,-107.81,-2.49,12.55,0.29
1210,43.38,-74.75,-74.81,-1.54,12.16,-0.17
1220,16,-107,-65.81,-1.48,14.97,0.01
1230,16,-107,-65.81,-1.48,14.97,0.01
1240,13.31,-117.06,-45.19,-0.4,15.25,-0.94
1250,6.12,-119.37,30.62,1.21,14.91,-1.95
1260,-29.31,-127.62,78.44,4.92,11.17,-3.5
1270,-64.69,-129.06,110.75,6.11,10.45,-3.31
1280,-64.69,-129.06,110.75,6.11,10.45,-3.31
1290,-89.87,-120.44,121.44,6.91,9.93,-2.63
1300,-87.37,-114.75,129.69,9.92,9.41,-3.44
1310,-63.63,-112.44,140.06,10.41,8.46,-4.23
1320,-52.56,-118,152.06,11.68,4.21,-5.7
1330,-62.19,-120.37,170.94,11.68,4.21,-5.7
1340,-85.06,-113.37,193.94,12.12,1.67,-6.14
1350,-115.37,-103.44,210.06,11.69,-3.32,-6.58
1360,-135.31,-94.69,222.5,12.17,-7.85,-9.29
1370,-127,-80.62,226.12,11.94,-8.71,-10.09
1380,-113.81,-51.13,206.87,11.94,-8.71,-10.09
1390,-100.94,-7.31,172.94,11.24,-9.08,-10.58
1400,-89.87,50.13,134.75,6.89,-7.89,-5.64
1410,-84.31,111.37,102.19,5.48,-7.71,-3.44
1420,-77.12,159.81,84.62,3.88,-7.76,-1.84
1430,-68,185.94,76.5,3.88,-7.76,-1.84
1440,-60.38,196.19,73.19,1.18,-8.06,1.03
1450,-63.88,196.94,73.56,-1.86,-7.14,4.17
1460,-61.69,183.25,80.75,-6.11,-8.52,2.4
1470,-39.25,147.06,98.25,-6.65,-10.7,-0.33
1480,-3.31,103.31,131.31,-6.65,-10.7,-0.33
1490,25.31,80.5,170.19,-6.3,-14.32,-2.81
1500,30.62,81.75,158.87,-8.39,-17,-2.4
1510,35.13,102.44,130.62,-9.01,-15.65,0.13
1520,41.38,126.75,80.56,-10.03,-13.39,1.36
1530,52.44,144.5,21.12,-10.03,-13.39,1.36
1540,92.37,150.69,-36.94,-12.07,-7.91,2.46
1550,114.5,138.5,-77,-12.78,-3.79,2.51
1560,123.19,118.94,-101,-13.12,-0.78,2.3
1570,130.62,101.94,-116.56,-13.42,0.02,1.76
1580,140.75,96.81,-127.56,-13.42,0.02,1.76
1590,156.87,105.25,-131.62,-13.28,0.36,1.31
1600,160.69,97.12,-127.5,-12.81,2.49,4.92
1610,159.62,67.75,-118.5,-12.78,3.08,4.32
1620,168.12,9.06,-105.06,-12.32,2.96,2.29
1630,178.87,-57.06,-85.5,-12.32,2.96,2.29
1640,181.69,-114.87,-66.87,-11.09,2.48,-2.41
1650,169.37,-150.25,-59.5,-9.78,2.4,-2.7
1660,144.75,-187.25,-58.19,-9.09,2.61,-2.28
1670,113.75,-231.69,-57.69,-5.41,1.9,-5.98
1680,119.06,-211.06,-63.19,-5.41,1.9,-5.98
1690,168.94,-146.94,-80.94,-5.85,3.9,-5.73
1700,186.31,-91.81,-118.19,-8.16,8.57,-2.6
1710,182,-65.87,-131.94,-9.47,8.49,-2.46
1720,158.87,-80.25,-123.12,-6.3,7.23,-1.82
1730,98.37,-105.5,-77.31,-6.3,7.23,-1.82
1740,66.19,-105.12,-15.13,-3.05,4.94,-3.12
1750,52.63,-102.37,-2.94,0.87,8.43,-1.12
1760,56,-87.37,-29.19,3.84,11.49,0.31
1770,94.5,-80.56,-61.25,-0.07,15.01,-6.31
1780,144.19,-113.19,-87,-0.07,15.01,-6.31
1790,172.31,-169.75,-85.94,1.68,16.89,-8.87
1800,134.37,-179.75,-54.56,2.03,16.99,-10.42
1810,47.31,-202.37,-1.25,6.45,11.97,-14.97
1820,5.94,-198.81,60.69,6.9,12.53,-12.42
1830,-45.69,-153.69,91.5,6.9,12.53,-12.42
1840,-87.87,-99.06,99.12,7.72,12.79,-10.79
1850,-96.94,-56.81,108.87,6.88,11.48,-5.52
1860,-125.44,-40.88,123.75,7.9,8.54,-6.65
1870,-134.44,-38.5,161.31,8.82,4.49,-8.14
1880,-130.25,-34.5,204.75,8.82,4.49,-8.14
1890,-142.69,-27.5,226.75,8.62,3.52,-8.87
1900,-150.69,-23.19,245.31,9.07,0.59,-11.01
1910,-154.56,-14.13,274.12,9.07,0.59,-11.01
1920,-168.62,9.5,304.44,10.9,-9.3,-7.66
1930,-184.44,45.31,322.44,10.9,-9.3,-7.66
1940,-209.87,86.25,304.06,9.17,-10.43,-3.1
1950,-200.81,113.69,275.87,3.83,-11.16,-0.22
1960,-129.06,134.31,283.31,10.18,-14.6,-1.32
1970,-75,140.44,280.37,6.55,-16.13,-3.34
1980,-102.19,123.69,188.69,4.72,-15.51,-1.13
1990,-108.5,126.19,127.81,2.36,-15.09,-0.69
2000,-45.5,152.31,79,0.88,-14.25,-0.84
2010,-33.94,171.75,32.88,-0.91,-12.2,1.49
2020,-45.88,174.12,-0.06,-3.71,-9.38,3.77
2030,-24.31,160.5,-12.13,-4.88,-8.76,3.78
2040,-1.69,139.44,-12.56,-6.01,-8.22,4.01
2050,18.94,119,-9.31,-6.81,-8.4,3.77
2060,40.94,102.12,-7.5,-8.4,-9.13,2.93
2070,56.38,92.44,-11.56,-8.73,-9.71,2.46
2080,53.25,85.87,-20.12,-8.63,-9.6,2.81
2090,49.06,80.44,-39.38,-9.25,-8.34,1.93
2100,56.56,72.5,-58.44,-10.12,-7.38,2.56
2110,53.19,62.19,-80.62,-11.54,-6.01,3.57
2120,76.37,50.44,-90.37,-11.52,-6.64,1.43
2130,92.19,28.31,-90.69,-11.63,-6.16,1.73
2140,89,11.63,-100.19,-11.64,-5.41,0.74
2150,121.81,19.06,-112,-10.87,-5.96,-1.13
2160,116.44,34.06,-134.31,-12.2,-1.76,3.22
2170,106.31,49.06,-158.44,-11.56,-1.28,3.24
2180,135.75,49.19,-169.44,-11.02,-0.59,3.61
2190,143.69,30.75,-187.87,-10.59,3.59,3.98
2200,179.12,15.5,-210.94,-11.95,5.46,2.28
2210,242.44,9.63,-220.25,-10.82,6.77,0.67
2220,266.31,-55.25,-197.37,-10.07,7.87,-0.73
2230,237.06,-140,-172.25,-8.56,8.72,-1.45
2240,198.56,-242.06,-156.25,-9.6,8.88,-3.95
2250,169.31,-306.44,-138.56,-7.17,8.36,-8.78
2260,153.06,-239.81,-98.44,-4.49,8.79,-11.02
2270,145.37,-188.06,-84.19,-4.37,9.08,-12.15
2280,145.12,-126.94,-83.75,-3.58,10.34,-10.65
2290,69.25,-54.25,-76.37,-3.71,11.52,-8.03
2300,69.25,-54.25,-76.37,-3.6,11.38,-6.3
2310,61.69,-45,-52.5,-3.14,10.85,-5.64
2320,47.63,-41.75,-24.44,-1.87,10.32,-4.33
2330,36,-42.94,-2.56,1.26,10.76,-2.12
2340,48.44,-53.31,7.06,2.57,10.32,-1.67
2350,78,-75.62,5.56,1.73,10.25,-2.71
2360,105.12,-92.25,7.5,2.47,8.52,-6.51
2370,88.06,-92.19,21.87,2.98,7.88,-6
2380,33.31,-79.37,38.63,3.57,8.14,-4.82
2390,18.5,-48.88,50.75,4.02,8.54,-2.37
2400,39.94,-36.38,70.62,6.71,6.96,-2.35
2410,53.69,-40.56,87.19,7.21,6.8,-3.53
2420,41.69,-65.94,92.94,7.62,6.95,-4.15
2430,20.19,-97.19,105.37,9.12,3.71,-8.44
2440,-10.63,-69.81,107.69,8.39,3.6,-9.46
2450,-10.63,-69.81,107.69,7.69,3.64,-9.68
2460,-56.13,-43.06,117.25,7.39,3.1,-9.2
2470,-85.62,5.94,137.56,7.36,-0.22,-7.64
2480,-104.31,67.19,156,7.32,-1.42,-5.68
2490,-142.62,167.44,165.19,6.43,-2.41,-3.92
2500,-142.62,167.44,165.19,5.82,-4.72,1.08
2510,-101.44,200.81,160.56,5.85,-5.37,0.02
2520,-83.25,201.31,153.44,5.24,-5.33,2.27
2530,-108.44,183.56,145.56,4.6,-5.42,3.1
2540,-85.87,131.37,139.62,4.3,-6.93,-0.74
2550,-85.87,131.37,139.62,3.71,-7.11,-1.88
2560,-116.44,121.87,130.5,2.53,-6.91,-1.71
2570,-132.31,132.37,122.5,1.31,-7.04,-1.65
2580,-123,158.62,117.12,0.28,-6.41,-1.2
2590,-126.87,209.12,111.75,-1.53,-4.8,-0.2
2600,-126.87,209.12,111.75,-4.05,-1.77,1.63
2610,-115.69,223,147.06,-2.82,-6.1,0.48
2620,-117.5,232.5,162.81,-4.58,-5.82,0.54
2630,-207.87,210.06,159.44,-5.8,-5.52,2.26
2640,-310.37,175.87,185.25,-2.1,-7.25,5.36
2650,-310.37,175.87,185.25,-3.5,-8.37,4.1
2660,-294.69,112.37,142.81,-3.99,-8.61,3.72
2670,-297.69,51.13,101.19,-4.53,-7.04,4.4
2680,-155.06,13.69,34.31,-5.19,-6.5,4.06
2690,-43.31,23.62,8.94,-5.69,-6.47,2.8
2700,-43.31,23.62,8.94,-6.11,-6.64,0.79
2710,25.37,29.12,-9.25,-6.94,-6.48,-1.39
2720,41.38,61.25,-35.5,-7.05,-6.1,-0.03
2730,53.69,60,-43.19,-6.91,-5.79,2.21
2740,83.25,29.75,-53.31,-6.09,-5.7,4.8
2750,83.25,29.75,-53.31,-6.08,-5.78,4.17
2760,119.31,-78.44,-89.5,-6.25,-5.9,2.76
2770,122.31,-118.31,-111.31,-6.35,-5.69,1.29
2780,117.87,-141.12,-131.94,-5.99,-4.88,-3.04
2790,98,-148.62,-152,-5.96,-4.26,-4.29
2800,98,-148.62,-152,-5.81,-3.83,-5.4
2810,93.06,-119.12,-172.25,-4.87,-3.49,-5.99
2820,101.37,-26.44,-216.44,-4.96,-3.1,-4.41
2830,120,1.75,-239.31,-5.01,-2.08,-2.09
2840,157.94,3.87,-257.12,-5.02,-0.67,0
2850,157.94,3.87,-257.12,-5.84,2.07,0.35
2860,207,-33.5,-262.19,-6.53,3.34,-0.03
2870,196.19,-53.5,-242.56,-7.15,4.65,-0.14
2880,176.56,-72.94,-209.56,-6.91,6.11,-0.78
2890,148.31,-91.19,-173.5,-6.3,5.53,-1.32
2900,121.37,-98,-150.12,-5.46,4.3,-1.66
2910,104.5,-93.75,-146.31,-5.44,2.37,-0.56
2920,101.5,-91.81,-154.87,-5.52,1.96,1.15
2930,112.44,-108.12,-167.5,-5.8,2.49,2.42
2940,126.69,-138,-177.87,-5.73,3.49,2.05
2950,129.25,-166.81,-189.81,-4.81,7.12,-0.26
2960,114,-186.75,-214.56,-4.23,7.82,-1.28
2970,64.75,-195.87,-250.87,-4.53,7.84,-2.5
2980,14.56,-189.19,-208,-7.64,12.58,0.2
2990,36.38,-185.62,-126.37,-5.9,11.73,-1.97
3000,35.63,-182.31,-79.5,-5.6,11.33,-4.13
3010,31.94,-150.31,-37.31,-5.89,11.62,-4.24
3020,40.56,-118.75,4.56,-3.07,11.17,-1.64
3030,43.63,-119.19,28.81,-1.16,11.09,0.09
3040,49.56,-149.31,38.81,-0.59,10.88,0.72
3050,38.31,-186.12,35.06,1.79,12,-3.41
3060,17.94,-208.62,30.19,1.94,13.13,-5.65
3070,8.06,-194.81,37.25,2.32,14.52,-7.22
3080,-4.31,-174.56,72.44,1.75,15.78,-8.04
3090,-31.37,-149.75,129.94,0.53,15.41,-9.95
3100,-42.69,-103.81,190.87,0.83,14.29,-8.95
3110,-37.94,-62.25,239.81,1.87,12.66,-7.98
3120,-57.5,-43.81,278.12,2.6,8.39,-6.94
3130,-92.75,-38.13,313,2.71,5.88,-6.81
3140,-122.12,-31.5,341.75,2.95,2.44,-7.49
3150,-138.94,-16.12,352,3.8,-0.86,-8.05
3160,-121.75,11.13,333.69,6.26,-5.33,-7.92
3170,-75.81,55.19,287.5,6.44,-5.7,-7.98
3180,-50.31,100.37,241.44,5.52,-5.18,-7.75
3190,-56,126,215.37,4.58,-3.75,-4.76
3200,-61.5,133.37,209,4.31,-3.56,-3.95
3210,-59.94,135.62,214.19,3.94,-3.94,-3.76
3220,-58,137.56,224.44,3.09,-6.09,-3.93
3230,-57.94,141.12,231.94,2.25,-7.24,-4.23
3240,-57.38,147.69,237,1.23,-8.61,-4.72
3250,-51.88,163.19,237,0.47,-10.01,-4.98
3260,-39.56,188.69,229.31,-1.21,-11.98,-4.45
3270,-20.81,223.62,225.94,-3.14,-11.86,-3.8
3280,1.5,262.44,232.19,-4.89,-11.52,-2.54
3290,10.25,275.94,177.37,-4.56,-14.78,-0.21
3300,-4.5,274.56,131.44,-5.62,-14.76,2.67
3310,8.5,254.87,97,-6.5,-14.54,4.8
3320,35.13,216.62,65.12,-7.03,-14.62,6.05
3330,53.69,158.62,30.12,-7.42,-14.93,6.68
3340,74.12,99.5,-12.63,-7.57,-14.54,5.97
3350,104.31,63.63,-59,-7.99,-13.69,4.61
3360,126.25,48.88,-100.87,-8.79,-10.14,2.52
3370,133.19,42.81,-129.69,-9.41,-8.06,2.24
3380,135.31,38.75,-144.94,-9.84,-6.41,1.96
3390,136.62,32.06,-152.94,-10.47,-3.32,2.12
3400,144.12,20.62,-154.62,-10.85,-2.35,1.73
3410,148.69,4.75,-152.25,-11.11,-1.83,1.1
3420,150.06,-4.44,-150.44,-11.43,-1.65,0.28
3430,142.25,0.81,-153.31,-11.9,-2.36,-0.37
3440,116.69,4.87,-168.62,-11.58,-2.66,1.33
3450,109.62,-8.75,-197.37,-11.34,-2.3,3.71
3460,138.81,-34.31,-231.19,-11.53,-0.07,4.47
3470,178.56,-61.75,-261.94,-11.79,1.57,3.54
3480,210.62,-106.75,-277.56,-12.47,3.62,2.65
3490,230.12,-167.62,-271.06,-12.81,5.71,1.76
3500,233.5,-218.44,-256.44,-13.25,8.09,-1.47
3510,196.44,-263.56,-239.5,-13.61,7.71,-2.21
3520,149.06,-246.37,-181.06,-15.46,8.06,-3.42
3530,140.81,-210.06,-118.44,-8.95,4.92,-4.64
3540,129.25,-192,-114.37,-7.49,5.01,-3.56
3550,140,-184.94,-130.31,-7.06,6.7,-1.87
3560,168.44,-196.75,-139.69,-6.75,8.69,-1.21
3570,168.75,-231.06,-142.81,-6.76,11.64,-3.33
3580,155.69,-261.94,-117,-5.76,12.75,-4.67
3590,144,-280.19,-91.75,-4.61,12.86,-7.77
3600,112.62,-275.87,-68.25,-2.87,12.62,-13.39
3610,82.69,-243.19,-44.69,-1.94,13.09,-14.48
3620,66.75,-189.87,-15.88,-1.37,13.63,-15.06
3630,50.13,-133.75,24.75,-1.86,14.01,-14.76
3640,27.62,-72.81,70.75,-0.58,12.39,-12.31
3650,6.06,-34.31,108.06,-0.21,11.28,-8.18
3660,2.56,-48.13,136.25,0.8,10.18,-5.34
3670,-3.12,-80.62,151.69,3.05,6.78,-8.05
3680,-19.37,-99.5,150.87,4.12,6.31,-8.73
3690,-9.56,-92.81,143.81,5.01,6.22,-10.32
3700,-19.37,-64,141.31,5.55,6.64,-13.04
3710,-54.06,-24.87,148.19,5.89,7.27,-11.78
3720,-68.87,14.38,161.31,5.77,7.92,-10.1
3730,-77,42.69,182.12,6.01,8.13,-8.74
3740,-100.62,53.69,209.12,6.51,6.75,-5.71
3750,-126.5,55.56,240.12,6.66,5.09,-4.09
3760,-146.19,44,268.87,7.5,2.72,-2.9
3770,-152.87,25.94,284.69,8.05,-2.03,-3.04
3780,-140.31,16.5,288.75,7.45,-3.85,-4.38
3790,-119.81,26.31,283.75,7.02,-5.32,-5.88
3800,-111.81,51.88,270.94,6.33,-6.45,-7.07
3810,-111.37,89.31,252.06,5.19,-8.05,-7.43
3820,-112.81,129.75,229.37,4.54,-8.41,-6.71
3830,-103.56,167.19,205.06,3.78,-8.64,-5.52
3840,-84.37,200.69,181.06,1.51,-9.18,-3.75
3850,-79.19,225.62,161.12,0.35,-9.23,-2.93
3860,-85.31,243.56,145.31,-0.7,-9.1,-1.7
3870,-92.87,255.5,134.56,-1.76,-9.05,-0.58
3880,-100.69,263.87,131.44,-3.81,-8.6,2.35
3890,-93.56,267.81,140.94,-4.61,-7.77,4.01
3900,-63.44,261,151.75,-4.66,-7.03,5.36
3910,-28.5,237.62,138.87,-2.4,-7.92,6.11
3920,-10.19,192.06,96.69,-4.93,-7.53,6.29
3930,19.56,141.69,82.44,-6.18,-7.19,6.78
3940,19.56,141.69,82.44,-7.77,-8.82,3.34
3950,106.25,58.38,78,-8.13,-10.22,0.9
3960,112.69,49.94,65.62,-8.47,-11.47,-0.68
3970,108.56,63.88,38.63,-8.54,-12.55,-1.16
3980,96.87,81.5,-0.37,-8.34,-13.84,-0.59
3990,96.87,81.5,-0.37,-8.34,-13.52,0.5
4000,79.5,96.06,-52.38,-8.53,-12.03,2.06
4010,78.44,98.5,-159.81,-9.81,-6.57,4.65
4020,92.81,81.94,-187.06,-10.55,-4.21,5.06
4030,106.31,61.56,-192.56,-11.19,-2.4,5.25
4040,106.31,61.56,-192.56,-11.43,-1.43,4.89
4050,122.75,42.13,-183.25,-11.51,-0.35,4.39
4060,137.06,-18.94,-155.06,-11.26,-0.63,3.97
4070,130.69,-50.06,-151.5,-10.34,-1.29,3.63
4080,126.75,-74.5,-166.81,-9.02,-1.09,3.08
4090,126.75,-74.5,-166.81,-8.81,-0.17,2.73
4100,137.69,-92.69,-194.56,-8.92,1.14,2.12
4110,164.56,-114.94,-241.94,-9.24,2.76,1.62
4120,168.31,-129.31,-245.25,-9.4,6.23,0.84
4130,168.19,-153.12,-237.69,-9.18,7.6,0.93
4140,168.19,-153.12,-237.69,-8.6,8.68,1.13
4150,167.56,-196.69,-227.06,-7.77,9.84,-1.38
4160,185.69,-254.12,-218.06,-7.88,10.28,-2.29
4170,221.87,-257.19,-200,-8.67,10.62,-3.02
4180,247.12,-267.94,-144.62,-9.76,12.2,-2.01
4190,247.12,-267.94,-144.62,-9.76,12.2,-2.01
4200,268.56,-303.31,-104.69,-8.61,13.51,-3.75
4210,257.44,-364.37,-6.31,-8.57,12.98,-8.93
4220,155.5,-354.5,43.38,-2.81,5.75,-17.5
4230,55.19,-308,38.5,-0.14,4.54,-17.94
4240,55.19,-308,38.5,-0.14,4.54,-17.94
4250,26.37,-228.44,0.88,1.37,10.41,-17.46
4260,-11,-35.19,-36.88,0.81,14.12,-13.03
4270,-24,13.06,4.25,0.72,16.2,-8.95
4280,-34.75,18.62,73.56,0.48,16.55,-6.29
4290,-34.75,18.62,73.56,0.48,16.55,-6.29
4300,-55.88,1.37,149.31,2.3,11.11,-4.82
4310,-121.19,-33.31,221.25,4.68,4.15,-7.5
4320,-147.25,-26.81,221.62,5.4,0.65,-10.8
4330,-159.62,1.5,214.62,5.53,-0.25,-11.45
4340,-159.62,1.5,214.62,5.53,-0.25,-11.45
4350,-156.25,44.25,204.12,5.64,-0.61,-11.25
4360,-110.62,128.94,191.06,5.29,-0.27,-5.85
4370,-91.94,151.44,197.69,5.17,-1.09,-4.44
4380,-97.44,152.37,207,5.32,-2.14,-3.29
4390,-97.44,152.37,207,5.32,-2.14,-3.29
4400,-106.31,145.56,212.75,4.83,-4.46,-3.11
4410,-127.75,151.37,206.06,4.06,-6.39,-4
4420,-136,162.31,196.37,3.49,-7.08,-4.31
4430,-132.69,186,182.37,2.81,-8.61,-5.09
4440,-132.69,186,182.37,2.81,-8.61,-5.09
4450,-125.31,222.81,159.75,2.3,-8.7,-4.84
4460,-115,284.56,114.81,-0.34,-7.38,-1.7
4470,-112.25,302.94,100.31,-1.54,-6.64,-0.11
4480,-102.69,309.5,94.62,-2.62,-6.15,1.09
4490,-102.69,309.5,94.62,-2.62,-6.15,1.09
4500,-91.81,306.19,94.56,-3.87,-6.09,3.74
4510,-77.69,291.5,96.25,-5.51,-6.7,5.03
4520,-60.38,268.69,101.62,-6.79,-6.61,5.57
4530,-43,239.5,119.37,-5.49,-7.66,5.54
4540,-15.06,209.06,138.69,-5.49,-7.66,5.54
4550,1.37,185.62,109.19,-5.07,-9.85,4.46
4560,-5.19,160.44,60.5,-7.54,-9.98,6.78
4570,23.5,145.75,27,-7.98,-9.92,6.15
4580,63.44,131.5,-4.12,-8.34,-9.86,5.4
4590,75.25,107.69,-31.75,-8.34,-9.86,5.4
4600,65.81,66.31,-57.56,-8.87,-9.66,5.31
4610,75.12,22.44,-81.44,-10.96,-7.56,5.41
4620,107.31,-18.5,-99.5,-12.04,-7.01,4.33
4630,140.62,-54.31,-109.31,-13.05,-6.68,1.58
4640,161.69,-81.12,-113.06,-13.05,-6.68,1.58
4650,166.5,-98.81,-118.69,-13.03,-6.88,0.38
4660,158.75,-107.62,-133.56,-12.71,-6.78,-0.63
4670,147.19,-109.31,-157.12,-11.75,-4.58,0.04
4680,143.5,-109.19,-186.12,-10.9,-2.93,0.43
4690,154.94,-114.44,-216.31,-10.9,-2.93,0.43
4700,176.5,-127.12,-245.94,-10.33,-1.14,0.43
4710,199,-142.19,-268.62,-8.86,6.79,0.29
4720,220.56,-175.94,-278.25,-7.84,8.29,-0.52
4730,210.94,-237,-281.94,-11.19,11.62,-2.53
4740,179.87,-266.87,-295.5,-11.19,11.62,-2.53
4750,195.31,-271.06,-237.19,-7.25,12.57,-3.48
4760,246.19,-279.62,-172.56,-4.44,11.98,-12.37
4770,223.19,-266.31,-146.81,-4.1,15.46,-13.13
4780,189.62,-233.62,-113.06,-3.82,15.92,-13.78
4790,188.69,-179.5,-53.31,-3.82,15.92,-13.78
4800,170.81,-123.06,19.37,-2.53,15.5,-13.17
4810,129.94,-108.5,85.25,3.61,7.09,-15.6
4820,63.38,-111.94,111.56,6.97,7.82,-12.41
4830,-8.56,-72.19,77.56,6.59,10.72,-6.52
4840,24.25,-44.19,38.5,6.59,10.72,-6.52
4850,64.81,-42.81,24.62,4.56,14.24,-10.93
4860,17.25,-27.19,40.13,4.9,15.96,-8.14
4870,-19.75,-5.81,83.75,6.57,12.36,-8.69
4880,-45.38,1.12,129.75,7.21,10.82,-8.08
4890,-81.69,10.44,160.19,7.21,10.82,-8.08
4900,-114.06,18.31,180.94,7.51,9.34,-7.86
4910,-149.62,19.94,200.75,7.51,3.46,-9.27
4920,-179.25,30.5,219.87,7.4,1.25,-9.39
4930,-195.25,55.63,234.44,7.52,-0.66,-9
4940,-202.5,86.06,239.87,7.52,-0.66,-9
4950,-198.87,117.19,235.06,6.41,-3.66,-7.42
4960,-193.12,141.69,224.25,4.87,-5.3,-5.35
4970,-183.19,154.44,211.87,3.21,-7.39,-5.25
4980,-164.12,159.25,203.06,2.6,-8.42,-5.72
4990,-146.44,168.37,195.06,2.6,-8.42,-5.72
5000,-131.25,192.75,179.19,2,-9.21,-5.83
5010,-119.19,227.69,152.37,-1.28,-9.1,-2.27
5020,-113.19,258.5,121.25,-2.8,-8.41,-0.78
5030,-104,279.5,95.06,-4.24,-7.99,0.37
5040,-93.87,290.69,80.5,-4.24,-7.99,0.37
5050,-87.62,291.12,75.06,-5.98,-7.64,3.43
5060,-74.31,286.06,77.12,-6.98,-6.52,5.76
5070,-46.88,274,81.06,-7.6,-6.28,5.46
5080,-12.31,272.94,74.81,-7.6,-6.28,5.46
5090,25.25,273.94,71.12,-7.68,-6.07,7.93
5100,48.13,195.19,50.75,-8.84,-6.34,6.75
5110,27.5,134.5,37.75,-10.9,-5.63,8.24
5120,30.62,78.56,43.81,-11.5,-6.64,8.83
5130,48.5,27.12,52.63,-11.25,-7.81,8.13
5140,58.5,-24.19,52.56,-10.42,-9.12,7.04
5150,61.25,-63.69,36.63,-10.52,-10.06,5.49
5160,59.13,-89.19,9.13,-9.03,-11.14,3.08
5170,67.31,-103.56,-33.25,-8.88,-10.45,2.95
5180,98,-110.31,-77.75,-8.93,-9.2,2.54
5190,128.44,-110.69,-112.81,-9.7,-6.14,0.76
5200,144.69,-110.69,-133.75,-10,-4.76,0.28
5210,151.62,-107.69,-140.87,-10.33,-3.94,-0.11
5220,143.87,-105.5,-142.44,-10.32,-3.44,-0.39
5230,131.69,-111.37,-145.56,-9.67,-2.23,0.53
5240,138.5,-124.69,-152.69,-9.56,-1.66,0.72
5250,154.75,-146.56,-163.06,-9.31,-0.85,0.84
5260,171.75,-184.19,-172.25,-9.16,1.72,0.59
5270,190.37,-237.37,-174.12,-9.17,2.7,-0.06
5280,197,-293.69,-166.56,-8.63,3.02,-0.69
5290,196.06,-308.94,-165.56,-5.61,2.72,-7.24
5300,184.62,-282.62,-187.25,-3.82,3.96,-9.89
5310,156.31,-247.44,-219,-3.19,6.51,-10.41
5320,137.5,-209.31,-240.31,-3.15,9.35,-10.3
5330,116.31,-183,-255,-1.26,12.22,-9.81
5340,91.5,-170.56,-263.81,-8.6,15.37,-9.27
5350,99.31,-149.69,-164.75,-4.51,17.21,-6.81
5360,116.56,-143.75,-79.31,-3.09,16.27,-11.44
5370,69.06,-146.56,-4.06,-1.19,14.24,-13.44
5380,17.19,-103.81,46,0.44,11.23,-15.39
5390,-38.13,-26.62,55.31,1.83,8.63,-14.84
5400,-65.25,48.81,39.31,2.88,8.8,-5.04
5410,-64.19,70.81,30.5,2.44,9.86,-1.76
5420,-60.25,52.19,35.19,1.8,10.72,-0.28
5430,-57.75,22.37,50.63,2.28,11.78,0.44
5440,-59.19,-12.63,75.87,2.53,11.68,-0.66
5450,-72.31,-42,108.06,3.2,10.76,-2.64
5460,-101.87,-58.81,136.94,4.3,9.27,-4.67
5470,-134.37,-61.81,155.31,6.94,6.23,-7.74
5480,-147.94,-50.63,163.12,7.73,5.33,-9.13
5490,-147.12,-20.75,167.69,8.05,4.77,-10.18
5500,-148.37,19.25,171.5,8.39,3.62,-9.06
5510,-147.06,56.94,177.12,8.41,3.12,-7.36
5520,-149.06,75.44,187.06,8.02,1.88,-6.35
5530,-159.37,79.44,196.5,7.67,-0.83,-5.34
5540,-171.44,75.37,206.31,8.26,-2.53,-5.8
5550,-173.12,78,206.06,8.35,-3.63,-6.13
5560,-157.69,95.87,196.06,7.48,-4.16,-6.39
5570,-138.81,120.5,186.69,5.52,-4.76,-5.9
5580,-122,143.75,180.25,3.9,-4.76,-5.55
5590,-102,167.31,180.94,2.47,-5.51,-5.51
5600,-83.81,192.12,176.56,0.48,-7.31,-4.93
5610,-71.94,216.5,161.56,-1.1,-7.45,-4.28
5620,-67.19,240.56,142.87,-2.79,-7.14,-2.99
5630,-60,257.94,129.87,-4.63,-6.41,-0.73
5640,-32.81,269.37,129.31,-8.53,-6.09,2.82
5650,-15.19,271.19,143.06,-10.09,-6.74,3.11
5660,-28.87,274,170.62,-11.91,-7.23,3.78
5670,-20.44,293.37,220.12,-6.86,-10.6,7.77
5680,12.06,234.37,192.62,-9.32,-13,4.98
5690,-32.38,155.69,133,-10.31,-13.86,6.29
5700,-35.19,107.75,78.69,-10.36,-13.65,8.9
5710,38.25,72.31,22.81,-10.39,-13.72,8.05
5720,81.56,35,-35.31,-10.92,-13.12,6.36
5730,74.37,-0.06,-84,-11.67,-11.47,5.88
5740,78.06,-20.62,-111.37,-12.33,-9.06,4.99
5750,84.87,-35.06,-123.19,-11.82,-9.04,3.97
5760,72.62,-52.38,-133.37,-11.18,-8.92,3.91
5770,71.37,-75.19,-147.31,-9.8,-7.99,4.53
5780,91.56,-106.19,-163.94,-9.05,-7.64,4.16
5790,119.19,-144.81,-186.37,-8.67,-7.01,3.21
5800,150.37,-182.81,-213.12,-8.75,-5.93,2.18
5810,172.12,-217.75,-239.69,-8.31,-2.68,-0.28
5820,177.87,-259,-267.75,-7.83,-0.45,-0.42
5830,192.56,-298.69,-291.56,-7.95,2.31,-0.73
5840,236.06,-261.25,-302.37,-9.2,6.16,-8.33
5850,218.62,-224.12,-289.25,-9.51,7.94,-9.71
5860,158.94,-175.69,-249.87,-9.35,9.1,-8.29
5870,132.56,-128.94,-191.25,-9.37,9.41,-6.49
5880,123.37,-101.75,-115.87,-4.86,6.27,-5.7
5890,106.12,-90.12,-90,-3.54,5.57,-5.21
5900,101.5,-77.19,-96.75,-3.47,6.6,-4.1
5910,107.31,-66.31,-98.19,-4.31,9.32,-3.59
5920,94.19,-62.5,-87.62,-4.3,9.45,-2.81
5930,75.62,-74.06,-66.81,-4.92,9.41,-1.55
5940,83.44,-90.12,-27.75,-3.97,8.71,-1.71
5950,85.06,-96.87,-8.81,-0.78,5.94,-4.97
5960,72,-91.56,-15.5,0.33,6.49,-4.5
5970,77,-87.94,-27.44,1.3,8.36,-2.9
5980,81.12,-99.87,-30.69,0.92,10.65,-6.6
5990,47.19,-93.5,-32.56,1.26,11.44,-6.53
6000,12.88,-75.94,-37.69,-0.63,12.19,-6.56
6010,-4.44,-47.56,-6.37,1.4,13.39,-3.45
6020,-22.75,-57.81,30.75,0.5,13.89,-2.57
6030,-3.62,-77.56,76.75,1.08,12.32,-5.08
6040,-0.13,-61,109.06,2.15,10.41,-8.01
6050,-41.25,-33.25,126.81,3,9.81,-5.51
6060,-66.44,-17.5,142.44,3.6,9.05,-5.25
6070,-89.69,-14.06,152.25,4.04,8.36,-5.12
6080,-114.81,-18.44,158.31,5.89,7.02,-4.77
6090,-132.37,-26,162.25,6.72,6.75,-4.7
6100,-133.87,-35.25,167.19,7.26,6.33,-5.45
6110,-130.62,-40.44,174.44,7.77,5.66,-6.73
6120,-131,-34.13,182.5,8.79,4.07,-8.52
6130,-128.87,-13.88,189.06,8.89,3.22,-9.39
6140,-133.06,20.62,195.31,8.46,2.3,-10.13
6150,-157.06,58.25,204.5,7.99,0.3,-8.36
6160,-184,83.25,214.37,7,-0.41,-6.88
6170,-192.69,92.37,230.06,5.83,-1.4,-6.22
6180,-187.5,91.12,249.87,4.47,-2.67,-6.3
6190,-167.25,90.12,269.56,2.26,-5.72,-7.44
6200,-131.37,99.44,281.5,0.84,-6.48,-7.91
6210,-84.69,122.37,287.62,-1.1,-6.94,-8.15
6220,-51.31,154.75,291.75,-4.72,-9.21,-9.32
6230,-49.94,196.62,286.25,-6.23,-9.92,-8.24
6240,-47.69,250.06,265.87,-8.09,-10.26,-5.9
6250,-14.81,310.69,243.5,-13.5,-11.07,-1.15
6260,10.38,362.69,254.62,-17.41,-9.9,1.59
6270,16.44,385.56,284.5,-8.37,-13.36,3.82
6280,-16.19,351.19,205.37,-12.31,-14.18,3.38
6290,-58.31,325.56,154.37,-11.16,-14.14,9.9
6300,-8.31,278.31,96.81,-10.01,-13.8,11.65
6310,68.31,193.25,28.06,-8.81,-13.63,10.98
6320,108.06,120.5,-50.88,-9.4,-9.86,9.86
6330,127.31,50.44,-113.75,-10.06,-7,8.85
6340,155.87,5,-147.12,-10.4,-4.81,7.48
6350,173.56,-28.19,-154.94,-10.54,-3.44,5.77
6360,160,-58.75,-146.69,-10.43,-1.57,3.96
6370,142.75,-82.25,-128.44,-10.49,-1.36,3.65
6380,135.69,-100.62,-105.5,-10.56,-1.6,3.51
6390,130.87,-123.5,-84.56,-10.3,-3.95,3.28
6400,128.19,-150.69,-76.81,-9.93,-5.65,3.27
6410,132.75,-183,-87.81,-9.59,-7.35,2.65
6420,136.75,-213.19,-120.37,-9.62,-8.54,1.61
6430,131.44,-239.25,-167.5,-10.48,-7.91,-0.23
6440,122.5,-271.44,-217,-11.27,-6.44,-0.78
6450,108.69,-316.25,-259.62,-11.36,-4.73,-1.16
6460,113,-326.37,-297.12,-11.91,-1.23,-3.6
6470,156.31,-279.62,-326.56,-11.99,0.47,-4.93
6480,178.94,-246.81,-339.06,-11.2,1.67,-5.89
6490,171.62,-215.19,-343.75,-9.63,4.11,-6.87
6500,160.19,-167.94,-349.12,-9.17,5.35,-6.21
6510,152.5,-119.75,-352.81,-8.42,6.79,-5.03
6520,140.81,-99.06,-352.69,-6.56,8.12,-3.85
6530,133.31,-100.25,-369.25,-2.69,9.63,-3.11
6540,122.87,-109.75,-416.44,-10.93,13.16,-3.34
6550,115.94,-107.31,-349.56,-8.01,15.36,-0.35
6560,161,-109.12,-270.94,-6,17.17,-0.98
6570,174.62,-135.62,-195,-7.66,16.49,-3.69
6580,133.56,-182.62,-113.25,-6.07,16.43,-7.8
6590,59.63,-192.69,-41,-5.48,16.42,-9.18
6600,36.06,-166.62,20.69,-2.83,12.78,-11.11
6610,44.31,-123.56,61,-1.3,10.08,-13.38
6620,17.25,-66.31,72.37,-0.52,8.06,-13.63
6630,-24.06,-14.25,60.44,1.86,6.77,-9.1
6640,-41.56,11.56,34.88,1.39,7.8,-6.68
6650,-22.31,29.44,19,-0.23,9,-6.6
6660,-12.88,58.69,33.56,-0.9,9.67,-7.27
6670,-50.75,81.31,70.25,-0.32,10.75,-4.99
6680,-91.06,89.06,112.25,0.92,10.42,-3.37
6690,-123.56,77.87,148.75,1.43,9.57,-2.58
6700,-147.69,63,176.25,3.44,7.09,-2.16
6710,-158.25,59.25,191.25,4.07,6.26,-1.88
6720,-164.12,54.81,200.56,4.62,5.47,-1.5
6730,-177.87,32.38,206.31,6.69,4.57,-0.88
6740,-187,-5.19,206.25,7.36,4.58,-1.94
6750,-187.37,-36,208.94,8.04,4.24,-3.72
6760,-191.31,-49.25,218.25,7.88,4.26,-4.95
6770,-174.31,-40.69,239.37,7.54,3.04,-6.27
6780,-150.69,-23.44,264.25,7.64,1.49,-7.39
6790,-145.69,1,281.37,7.58,-0.16,-8.32
6800,-150.94,31.06,286.06,7.98,-2.65,-8.05
6810,-145.62,60.94,277.12,7.85,-3.42,-7.81
6820,-129.81,88.56,260.5,7.33,-4.05,-7.74
6830,-113.69,116.87,240.37,6.33,-4.45,-7.53
6840,-100.19,144.5,221.25,2.85,-4.12,-5.98
6850,-86.37,166.75,214.69,0.89,-4.17,-5.55
6860,-77.5,185.81,219.94,-0.7,-4.72,-5.15
6870,-77,201.62,227.37,-3.13,-6.58,-3.62
6880,-79.19,216.44,231,-4.36,-7.42,-2.7
6890,-86.56,229.69,229.62,-5.83,-8.1,-1.58
6900,-103.87,236.81,226.5,-7.51,-8.61,-0.4
6910,-139.75,225.06,229.81,-11.43,-8.98,1.99
6920,-179.94,192.62,263.75,-13.64,-8.67,3.6
6930,-171.87,153.44,315.06,-9.89,-10.45,5.21
6940,-137.44,92.81,271.69,-11.14,-14.58,2.51
6950,-137.44,92.81,271.69,-10.53,-16.31,1.8
6960,-120.5,-7.12,190.87,-9.13,-17.43,1.41
6970,-64.25,-10.5,107,-8.06,-18.13,1.39
6980,28.12,-1,2.75,-7.11,-17.55,1.62
6990,123.44,9.13,-106.44,-8.87,-15.36,0.03
7000,123.44,9.13,-106.44,-10.8,-12.24,-0.44
7010,160.19,10,-190.5,-12.59,-7.3,0.8
7020,167.56,-18.75,-260.12,-13,-6.01,0.67
7030,177.81,-42.69,-265,-12.9,-5.62,-0.59
7040,174.06,-51,-272.87,-12.43,-4.57,-2.33
7050,154.12,-47.81,-286.94,-12.38,-3.87,-2.3
7060,154.12,-47.81,-286.94,-12.41,-3.3,-2.21
7070,133.87,-9.81,-326.25,-12.29,-2.83,-1.94
7080,122.31,7.62,-354.19,-11.34,-0.46,0.39
7090,127.81,15.38,-389.12,-10.9,1.06,2.04
7100,127.81,15.38,-389.12,-10.46,2.9,3.41
7110,166.06,8.31,-425.81,-9.85,6.37,3.68
7120,316.44,-28.19,-485.62,-10.04,6.8,1.93
7130,371.31,-40.75,-528.44,-12.97,7.23,-0.29
7140,350.06,-64.62,-463.69,-18.02,10.45,-0.78
7150,350.06,-64.62,-463.69,-14.71,11.49,-0.07
7160,323.75,-73.31,-361.31,-13.12,11.07,-0.49
7170,240.5,-138.06,-204.56,-11.8,10.66,-1.73
7180,163.5,-186.12,-149.06,-9.15,10.39,-3.14
7190,110.12,-240.69,-115.19,-8.46,11.08,-2.66
7200,110.12,-240.69,-115.19,-6.88,11.45,-4.12
7210,108.19,-275,-94,-6.88,11.45,-4.12
7220,134.44,-216.69,-76.62,-6.85,12.34,-7.75
7230,127.75,-212.87,-48.13,-6.1,12.44,-10.82
7240,66.19,-181.94,-3.19,-6.05,11.91,-12.09
7250,66.19,-181.94,-3.19,-6.05,11.91,-12.09
7260,3.94,-132.37,40.06,0.11,6.06,-9.77
7270,-47.75,-41.69,32.13,1.9,6.59,-5.8
7280,-56.44,-65.06,5.12,1.51,12.48,-2.63
7290,25.06,-89.81,-6.31,1.14,14.08,-5.41
7300,25.06,-89.81,-6.31,1.14,14.08,-5.41
7310,101.06,-85.81,3.87,0.62,14.64,-7.02
7320,87.81,-20.31,115.44,-1.18,14.42,-12.33
7330,-50.13,9.69,213.62,-0.09,11.86,-8.7
7340,-130.44,33.69,294.25,1.76,8.09,-6.4
7350,-130.44,33.69,294.25,1.76,8.09,-6.4
7360,-158.19,35.06,330.62,5.69,2.19,-5.42
7370,-172.94,18.81,280.69,7.03,0.22,-5.36
7380,-142.87,38.75,236.75,6.28,0.09,-5.76
7390,-126.94,72.56,204.5,4.78,0.49,-5.54
7400,-126.94,72.56,204.5,4.78,0.49,-5.54
7410,-149.06,99.12,186.94,3.78,0.94,-4.64
7420,-242.19,101.5,200,3.25,-1.12,-2.07
7430,-273.06,79.81,211.31,3.43,-2.61,-2.31
7440,-270.37,67.5,212.31,3.36,-4.08,-3.5
7450,-270.37,67.5,212.31,3.36,-4.08,-3.5
7460,-258.87,77.75,197.87,2.63,-5.12,-4.14
7470,-227,140.37,160,-0.27,-6.83,-2
7480,-222.44,166.62,142.69,-1.35,-7.34,-0.92
7490,-232.12,173.87,128.69,-2.84,-8.09,2
7500,-232.12,173.87,128.69,-2.84,-8.09,2
7510,-246.62,160.12,119.56,-3.71,-8.36,3.13
7520,-236.62,100.75,113.37,-5.22,-9.7,4.07
7530,-227.37,59.19,108.75,-5.74,-11.75,4
7540,-210.75,15.88,101.44,-5.89,-12.25,4.06
7550,-210.75,15.88,101.44,-5.89,-12.25,4.06
7560,-161,-18.19,92.56,-6.04,-12.53,3.48
7570,-84.69,-35.25,73.75,-4.45,-14.68,-2.33
7580,-24.37,-42.25,20.25,-6.26,-14.21,-2.94
7590,-17.37,-39.31,-41.19,-7.12,-13.99,-1.9
7600,-14.81,-22.75,-73.12,-7.12,-13.99,-1.9
7610,6.37,-9.56,-88.5,-6.93,-14.82,-1.97
7620,22,0.37,-106.37,-6.28,-15.93,-0.95
7630,35.56,6.69,-131.25,-4.88,-15.29,1.56
7640,50.88,-0.31,-168,-4.25,-13.68,2.04
7650,84.56,-25.25,-216.12,-4.25,-13.68,2.04
7660,130.19,-72.06,-260.31,-3.75,-11.15,0.88
7670,169.56,-121.62,-287.94,-1.9,-2.75,-6.56
7680,204.19,-151.56,-294.44,-1.29,-0.82,-8.83
7690,223.69,-151.44,-279.94,-0.91,0.64,-10.38
7700,218.37,-128.5,-246.5,-0.91,0.64,-10.38
7710,200.44,-91.06,-203.19,2.14,1.58,-11.76
7720,188.69,-46,-168.75,6.27,2.11,-11.25
7730,197.87,-0.5,-153,6.99,4.36,-11.6
7740,222.62,41.38,-154.37,6.99,5.42,-11.92
7750,242.69,79.31,-156.25,6.99,5.42,-11.92
7760,236.75,116.12,-153.06,6.81,6.77,-11.46
7770,220.81,152.75,-142.44,5.52,8.74,-8.67
7780,206.62,181.31,-120.87,5.94,8.63,-7.74
7790,182.81,201.87,-101.87,6.45,8.83,-6.85
7800,156.19,211.25,-99.25,6.45,8.83,-6.85
7810,141.5,214.69,-118.56,7.76,9.88,-6.72
7820,129.19,213.69,-163.94,6.53,11.24,-8.99
7830,104.25,215.62,-235.19,-0.66,15.75,-8.83
7840,67.19,243.12,-263.62,-3.75,17.04,-7.38
7850,49.75,297,-247.56,-3.75,17.04,-7.38
7860,38.31,345.62,-216.69,-6.37,17.92,-5.29
7870,13.38,373.06,-154.06,-9.81,17.71,1.42
7880,-9.44,378.19,-69.56,-9.92,16.18,2.03
7890,-51.19,348.69,14.81,-10.23,14.19,2.85
7900,-112.19,309.81,88.87,-10.23,14.19,2.85
7910,-140.44,272.69,140.31,-9.8,9.74,3.88
7920,-136.44,221.44,168.37,-10.73,7.73,2.89
7930,-127.06,164.25,184.62,-11.3,6.87,1.95
7940,-125.75,109.19,202.19,-11.86,3.78,-0.73
7950,-130.5,71.69,220.25,-11.86,3.78,-0.73
7960,-143.87,50.75,233.5,-12.04,2.29,-1.61
7970,-162.94,40.31,238.37,-12.82,-1.37,-1.13
7980,-178.12,35.13,236.56,-12.94,-2.25,-0.63
7990,-187.25,30.06,231.25,-12.85,-3.12,-0.34
8000,-191.37,21.69,221.25,-12.85,-3.12,-0.34
8010,-193.69,7.75,205.75,-12.66,-4.02,-0.16
8020,-197.81,-11.88,182.56,-11.09,-6.2,0.12
8030,-204.87,-32.38,150.25,-10.89,-6.33,0.15
8040,-216.44,-57,113.5,-10.07,-6.21,0.16
8050,-226.19,-85.12,78.56,-10.07,-6.21,0.16
8060,-221.94,-112.62,49.38,-10.06,-5.82,0.22
8070,-194.44,-134.31,28.5,-9.31,-6.12,-0.84
8080,-162.56,-148.37,16.31,-8.88,-6.44,-0.47
8090,-154.31,-149.75,4.69,-8.04,-6.86,0.09
8100,-156.31,-134.5,-14.31,-8.04,-6.86,0.09
8110,-147.56,-116.81,-39.69,-7.5,-7.25,0.84
8120,-130.19,-131.94,-64.5,-4.4,-5.59,1.08
8130,-84.31,-168.75,-86.69,-4.14,-5.47,-2.03
8140,-35,-210.31,-91.19,-0.89,-6.12,-4.77
8150,-27.56,-240.37,-71.31,-0.89,-6.12,-4.77
8160,-33.06,-267.87,-34.75,-0.25,-9.14,-7.67
8170,-14.13,-271.56,-15.63,0.53,-10.8,-9.81
8180,2.5,-236.25,-9.13,2.97,-10.19,-6.12
8190,14.25,-272.31,1.06,7.63,-12.63,-6.85
8200,71.44,-291.25,-17.56,8.88,-13.21,-9.77
8210,123.81,-274.25,-54,9.84,-12.95,-12.35
8220,136.31,-236.12,-90.75,10.29,-9.66,-15
8230,139.81,-179.87,-112.5,10.73,-8.07,-15.87
8240,133.94,-108.75,-121.87,11.1,-6.34,-15.28
8250,139.75,-30.5,-127.12,12.08,-4.66,-14.04
8260,153.12,45.94,-139.44,13.27,-1.47,-11.33
8270,165.12,118.25,-164.06,12.6,0.71,-9.1
8280,186.44,183.25,-190.5,11.59,2.64,-7.03
8290,189.37,218.5,-211.5,9.43,6.88,-2.14
8300,182.81,223.56,-226.75,8.23,8.67,-1.3
8310,183.06,224.56,-238.75,7.79,10.08,-1.45
8320,167.25,225.12,-260.06,7.24,10.77,-2.34
8330,125.19,230.69,-255.19,2.15,15.93,-0.38
8340,91.19,226.69,-209.19,0.36,17.12,0.46
8350,74.5,224.62,-150.56,-0.18,18.06,1.78
8360,78.37,221.44,-84.44,0.19,18.43,4.21
8370,87.44,213.62,-18,-0.2,18.2,5.58
8380,102.19,214.5,45.75,-1.29,17.79,6.63
8390,112.81,222.75,114.25,-4.06,14.95,7.12
8400,86.5,163.87,191.81,-2.04,12.87,8.84
8410,59.19,24.44,258,-2.24,10.04,9.01
8420,85.62,-80.5,280.62,-1.92,8.28,5.9
8430,133.56,-165.37,275.75,-4.37,8.3,-1.92
8440,156.5,-262.19,275.06,-6.2,8.89,-3.92
8450,180.81,-271.25,283.87,-6.16,7.11,-9.41
8460,177.06,-183.5,287.06,-7.4,1.99,-17.1
8470,114.87,-111.56,279.56,-7.77,0.31,-17.86
8480,54.75,-8.13,248.25,-8.33,-0.9,-17.85
8490,5.25,114.56,198.87,-9.42,-1.88,-17.12
8500,-60.13,229.56,144.56,-12.67,-2.01,-9.82
8510,-131.62,308.31,101.87,-14.26,-1.74,-5.44
8520,-182.5,350.94,74.75,-14.91,-1.97,-2.13
8530,-219.44,366.56,51.31,-14.83,-2.34,2.53
8540,-243.44,382.94,25.5,-14.71,-2.33,3.71
8550,-231.31,399.69,2.37,-15.14,-1.96,8.04
8560,-207.94,291.81,-10.25,-13.25,-2.29,7.07
8570,-228.12,219.75,-22.19,-13.66,-2.01,11.24
8580,-243.5,131.94,-24.37,-13.38,-1.92,12.33
8590,-228.62,34.31,-18.44,-12.5,-2.62,11.6
8600,-202.19,-53.06,-19.12,-12.03,-3.99,5.84
8610,-180.31,-108.44,-29.31,-12.41,-3.99,3.42
8620,-167.81,-136.87,-33.25,-12.39,-4.45,1.45
8630,-173.25,-149.81,-36.44,-10.3,-4.94,0.81
8640,-184.37,-159.56,-48.69,-9.74,-4.63,2.07
8650,-168.06,-169.5,-63.13,-9.12,-4.5,2.94
8660,-125.19,-190.87,-65.75,-9.1,-4.84,2.67
8670,-105.25,-243.75,-46.63,-10.17,-6.58,1.04
8680,-131.81,-350.62,1.81,-7.63,-8.2,0.03
8690,-144.87,-370.25,25.06,-7.44,-10.74,-2.32
8700,-150.62,-359.12,18.31,-3.25,-13.21,-4.33
8710,-144.75,-337.06,-2.5,0.32,-13.65,-3.19
8720,-97.06,-309.12,-48.06,4.58,-14.27,-2.25
8730,-18.19,-289.37,-125.56,6.19,-14.51,-3.1
8740,29,-285.62,-197.87,7.18,-10.18,-6.09
8750,43.75,-298.56,-243.31,7.9,-7.57,-7.88
8760,57.06,-308.5,-264.62,8.97,-5.49,-10.17
8770,70.12,-307.5,-271.25,11.47,-0.93,-15.03
8780,87.37,-295.56,-267.12,12.29,0.85,-17.73
8790,113.19,-261.56,-251.19,12.34,1.93,-21.44
8800,121.62,-188.19,-226.94,12.18,2.38,-25.01
8810,96.75,-69.37,-205.75,11.64,3.39,-26.61
8820,64.81,85,-198.75,10.78,4.7,-22.95
8830,52.19,235.25,-203.87,9.34,6.47,-17.79
8840,57.13,355.31,-214.44,6.73,8.65,-9.23
8850,39.13,424.69,-225.5,4.48,9.97,-4.97
8860,22.69,451.12,-227.56,3.71,10.7,-1.13
8870,44.81,446.19,-237.56,1.93,10.32,2.67
8880,69.87,416.06,-249.37,-1.82,12.37,5.12
8890,99.69,376.06,-191.81,-0.62,11.98,5.52
8900,145.62,336,-154.06,-1.14,11.44,4.69
8910,133.25,282.06,-127.12,-3.01,11.55,2.26
8920,77.94,243.31,-101.37,-5.53,13.17,3.28
8930,54.06,227.06,-54.06,-5.54,13.09,3.68
8940,56.75,205.31,-8.75,-4.58,11.4,2.62
8950,55.5,167.19,17.25,-5.12,11.13,0.98
8960,60.06,129.87,31.62,-6.18,10.95,-1.03
8970,73.12,107.19,48.69,-7.16,10.55,-3.14
8980,74.25,99.81,70.12,-9.53,9.15,-6.64
8990,46.88,99.62,95.44,-10.4,8.59,-7.47
9000,-0.94,102.56,120.31,-11.47,8.41,-7.58
9010,-45.81,109.56,146.31,-13.9,7.12,-6.42
9020,-83.62,119.56,177.94,-14.46,5.29,-5.7
9030,-134.44,120.75,204.81,-14.71,2.99,-5.25
9040,-202.94,110.37,218.62,-14.55,0.96,-4.94
9050,-262.87,101.81,220.25,-13.49,-1.97,-3.4
9060,-296.87,100.75,214.37,-12.88,-2.92,-2.35
9070,-313.69,102.25,203.37,-12.42,-3.76,-0.83
9080,-323.06,94.62,189.94,-11.63,-5.03,2.39
9090,-320.25,85.69,179.75,-10.85,-5.71,2.82
9100,-303.44,90.31,168.19,-10.37,-6.16,3.06
9110,-274.75,67.12,151.12,-7.13,-7.41,5.18
9120,-242,-3.25,112.31,-6.84,-7.56,5.43
9130,-235.12,-59.13,67.75,-6.32,-7.13,5.28
9140,-238,-131.12,27.25,-5.81,-6.38,4.73
9150,-227.5,-203.62,2.06,-5.88,-3.87,2.32
9160,-201.69,-278.12,5.19,-6.86,-2.86,1.73
9170,-176.75,-358.94,38.06,-4.72,-3.58,-1.48
9180,-158.75,-316.56,50.06,-5.49,-5.92,-6.99
9190,-179.06,-283.75,64.69,-4.94,-6.53,-6.81
9200,-193.56,-237.69,80.31,-5.74,-6.72,-5.58
9210,-204.56,-211.75,105.19,-5.76,-7.73,-4.84
9220,-222.06,-196.87,111.44,-1.31,-13.03,-5.49
9230,-238.81,-176.37,78.25,-0.42,-13.23,-3.41
9240,-205.69,-181.69,29.19,0.45,-13.68,-2.58
9250,-129.75,-194,-25.81,1.71,-15.07,-6.48
9260,-73.25,-193.62,-81.06,1.83,-14.48,-8.23
9270,-39.19,-170.75,-130.5,1.97,-13.33,-8.89
9280,-1.81,-133.06,-164,2.89,-12.08,-8.72
9290,45.38,-98.19,-186.94,5.81,-9.71,-7.79
9300,90.94,-72.56,-209.12,7.02,-7.77,-7.47
9310,123.87,-52.69,-231.31,8.19,-5.34,-7.43
9320,140.69,-37.75,-248.12,10.75,0.13,-7.44
9330,151.06,-21.25,-258.87,11.43,2.88,-7.25
9340,171.87,0.13,-259.5,11.19,5.29,-7.8
9350,190.94,25.37,-243.12,9.38,8.42,-10.64
9360,185.62,63.13,-209.5,8.5,9.24,-11.22
9370,157.62,114.87,-165.25,7.86,9.65,-10.58
9380,126.31,171.06,-120.25,7.38,9.48,-8.97
9390,101.62,221.06,-86.94,7.03,8.58,-3.84
9400,84.12,253.19,-71.94,6.86,8.77,-0.9
9410,86.31,255.94,-69.37,6.33,9.1,0.73
9420,107.31,244.19,-72.31,4.61,9.84,0.79
9430,124.62,228.5,-72,3.8,10.13,-0.09
9440,126.81,218.56,-70.06,2.76,10.54,-0.58
9450,125.5,217.69,-65.06,1.89,10.7,-0.65
9460,125.69,222.94,-60.81,0.15,10.35,-1.13
9470,104.81,225.62,-62.06,-0.55,10.64,-0.19
9480,80.56,224.06,-60.19,-1.95,10.48,-0.72
9490,54.69,234.31,-51.44,-4.64,12.16,2.33
9500,42.75,200.87,-15.94,-5.42,11.74,1.7
9510,67.44,177.94,9.31,-6.63,11.18,0.05
9520,65.75,157.87,34.63,-7.56,10.21,-2.01
9530,18.12,141.75,60.13,-9.23,9.13,-3.03
9540,-47.44,127.12,89.37,-9.94,8.76,-2.39
9550,-95.37,115.06,121.69,-10.45,7.95,-1.6
9560,-122.87,103.94,150.56,-11.22,5.81,0.73
9570,-129.75,89.94,173.44,-11.39,4.8,1.27
9580,-119.81,68.06,191.62,-11.11,3.47,0.9
9590,-124.75,37.44,198.94,-10.68,2.31,0.3
9600,-152.12,5.75,194.06,-9.9,0.8,-0.11
9610,-177.5,-20.56,181.62,-9.68,0.9,0.42
9620,-172.69,-34.38,167.94,-9.46,0.86,0.42
9630,-161.81,-41.13,157.94,-9.87,0.71,0.8
9640,-168.44,-50.44,157.94,-10.4,0.52,1.4
9650,-187.81,-60.56,169.62,-10.23,-0.14,1.66
9660,-217.19,-79.19,185.06,-8.72,-2.46,1.91
9670,-250.06,-130.12,193.12,-8.61,-3.1,1.52
9680,-271.69,-182.37,192.5,-8.66,-3.53,1.13
9690,-280.06,-226.37,194.62,-9.09,-3.96,1.18
9700,-272.62,-282.56,200.69,-6.64,-5.4,-1.11
9710,-223.12,-268.94,174.19,-6.83,-5.48,-2.12
9720,-159.44,-274.87,155.81,-6.58,-5.78,-4.27
9730,-99.5,-260.75,148.37,-7.66,-8,-10.02
9740,-77.81,-220.75,149.12,-7.77,-9.26,-11.07
9750,-83.81,-150.5,152.56,-6.33,-11.22,-12.18
9760,-136.87,-63.5,146.69,-4.87,-12.94,-11.76
9770,-241,6.06,127.25,-6.09,-12.48,-4.32
9780,-305.06,56.81,127.44,-1.96,-13.08,1.3
9790,-258.37,67.56,91.62,-2.69,-14.3,2.43
9800,-207.62,27.12,32.56,-2.36,-16.14,4.92
9810,-156,-42.25,-25.31,-1.63,-16.25,5.44
9820,-50.81,-115.12,-98.19,-1.63,-15.81,3.43
9830,69.37,-175.19,-173.06,-2.63,-14.5,-1.83
9840,105.31,-208.19,-226.75,-4.36,-9.89,-8.81
9850,87.37,-206.44,-247.5,-4.21,-8.39,-9.92
9860,79.37,-180.19,-244.5,-3.79,-7.83,-10.87
9870,84.81,-143,-231.69,-1.09,-8.68,-12.15
9880,91.69,-102.06,-227.25,0.69,-9.44,-12.03
9890,101.25,-62.31,-243.37,2.2,-9.74,-11.99
9900,112.44,-21.25,-284.69,4.53,-6.26,-10.59
9910,125.75,18.44,-342.62,5.65,-3.03,-9.34
9920,151.19,54.5,-403.19,6.82,0.35,-8.33
9930,187.75,89.94,-457.19,6.21,4.12,-7.44
9940,219.62,123.31,-485.62,3.84,10.91,-7.01
9950,223.19,156,-481.44,3.75,12.8,-6.24
9960,195.87,177.94,-469.06,4.93,12.93,-5.48
9970,128.75,187.25,-444.25,1.6,16.81,-1.63
9980,62.56,205.56,-309.37,2.52,16.58,-0.74
9990,55.88,223.12,-228.94,2.68,15.68,0.01
10000,48.06,226.19,-166.81,2.74,14.76,1.08
