timestamp,gyrox,gyroy,gyroz,accx,accy,accz
10,81.56,-149.5,-125.94,0,0,0
20,111.06,-209.37,-184.75,0,0,0
30,158.56,-246.5,-247.06,0,0,0
40,161.12,-256.75,-286.62,0.53,4.68,-17.81
50,143,-240.62,-299.06,0.25,8.25,-19.4
60,141.75,-200.56,-284.25,-0.38,13.79,-20.87
70,127.81,-153.94,-241.19,-4.94,16.14,-20.33
80,109.81,-120.06,-114.62,-3.43,17.74,-16.91
90,95.44,-131.31,-7.31,1.39,13.26,-13.47
100,70.25,-181.87,53.5,3.1,10.47,-13.14
110,82.69,-219.44,70.19,3.46,8.77,-15.01
120,110.19,-220.69,70.75,5.1,6.18,-21.51
130,95.75,-203.06,53.38,4.98,6.33,-22.39
140,84.25,-170.37,36.94,3.58,8.31,-22.68
150,69.12,-138.5,56.88,2.76,9.96,-24.2
160,0.94,-122,104.5,3.8,7.99,-26.62
170,-71.25,-100,144.25,5.45,5.11,-26.51
180,-105.81,-65.44,150,7.33,2.7,-25.87
190,-107.75,-30.06,126.12,9.2,2.29,-23.25
200,-85.25,-2.87,97.44,9.26,4.34,-21.85
210,-56.75,7.75,86,9.23,6.56,-21.17
220,-43.69,4.31,97.37,9.18,8.39,-21.35
230,-51.88,2.31,125.94,8.95,9.28,-23.93
240,-79.69,10.56,159.37,9.16,8.39,-25.28
250,-113,36.06,186.06,9.31,6.95,-25.91
260,-141.62,69.62,200.25,9.88,3.71,-23.79
270,-157.56,97.31,204.56,9.96,2.34,-22.9
280,-168.25,121.06,201.12,9.99,1.18,-22.01
290,-170.94,141.81,192.06,9.98,0.36,-20.85
300,-164,158.81,180.81,9.11,-1.02,-19.1
310,-158.06,171.69,170.31,9.04,-1.5,-18.34
320,-154.75,179.94,157.94,9.09,-1.66,-17.37
330,-146.31,182.94,146.37,8.2,-1.45,-15.81
340,-132.62,184.75,139.06,7.87,-1.33,-15.51
350,-117.19,190.44,134.06,7.47,-1.33,-15.36
360,-102.5,201.81,130.5,6.75,-1.92,-14.58
370,-93.06,215.62,127.12,6.47,-2.12,-13.77
380,-88.06,227.75,123.62,5.99,-2.08,-12.37
390,-76.87,229.25,124.25,5.43,-2.01,-10.62
400,-55.56,216.37,132.06,3.82,-2.75,-8.81
410,-35.13,196.94,148.37,3.48,-3.87,-8.69
420,-22,179.81,168,3.24,-5.42,-8.64
430,-22,179.81,168,2.12,-8.89,-8
440,15.5,165.62,198.44,0.44,-9.62,-7.31
450,53.5,167.37,227.56,0.74,-10.24,-6.36
460,92.5,153.94,182.5,6.29,-13.55,-6.14
470,89.12,126.5,106.81,2.53,-14.33,-4.79
480,102.75,91.75,53.19,1.78,-13.99,-4.07
490,133.62,53.19,6.44,1.43,-13.97,-4.67
500,140.62,16.12,-38.06,0.05,-12.86,-6.75
510,131,-9.81,-76.5,-0.64,-11.94,-7.22
520,132.25,-22.75,-108.19,-1.07,-11.17,-7.66
530,143.37,-29.44,-136.69,-1.53,-10.35,-7.82
540,162.87,-38.06,-159.5,-2.75,-8.09,-7.1
550,189.81,-54.19,-177.5,-3.31,-7.04,-6.92
560,209.69,-83.5,-189.94,-3.81,-5.63,-7.2
570,223.19,-121.75,-196.31,-4.54,-2.28,-8.62
580,223.19,-121.75,-196.31,-4.5,-1.33,-10.37
590,234.19,-157.94,-198.81,-4.13,-0.36,-11.99
600,211.81,-217.12,-216.44,-3.72,0.91,-13.42
610,201.56,-242.56,-231.87,-3.31,4.77,-15.28
620,199.06,-241.19,-241.12,-3.23,6.39,-17
630,199.06,-241.19,-241.12,-3.03,8.12,-18.62
640,186.5,-233.62,-244.69,-2,11.79,-20.65
650,112.25,-209.12,-227.87,-1.28,12.85,-21.39
660,62.25,-196.12,-214.31,-0.59,13.51,-21.84
670,17,-184,-188.62,-0.41,14.98,-19.92
680,17,-184,-188.62,0.51,14.19,-20.2
690,17.69,-174,-143.12,2.46,12.36,-23.74
700,5,-129.94,-99.94,4.11,11.65,-25.21
710,-15.31,-102.44,-110.81,4.56,16.09,-19.91
720,23.06,-82.37,-102.31,3.34,18.13,-18.98
730,23.06,-82.37,-102.31,3.23,19.21,-18.82
740,38.88,-85.31,-55.75,2.98,19.41,-19.07
750,-17.44,-122.69,81.25,3.52,18.08,-19.47
760,-44.69,-130.56,143.62,4.63,15.73,-20.38
770,-78.5,-132.75,179.25,5.76,13.48,-20.87
780,-78.5,-132.75,179.25,5.76,13.48,-20.87
790,-92.56,-130.87,194.25,4.85,13.49,-17.99
800,-33.13,-121.69,262.44,6.32,10.97,-19.99
810,-53.44,-127,294.94,7.19,7.68,-22.54
820,-108.94,-129.19,312.81,8.86,4.82,-23.82
830,-108.94,-129.19,312.81,8.86,4.82,-23.82
840,-171.5,-120.37,306.12,10.08,1.57,-22.66
850,-203.12,-94.81,278.69,12.18,-2.04,-23.34
860,-196.06,-74.25,255.81,12.97,-2.95,-23.74
870,-175.75,-43.06,226.94,13.84,-3.82,-24.87
880,-175.75,-43.06,226.94,13.84,-3.82,-24.87
890,-165.75,-3.19,194,14.49,-4.71,-26.42
900,-153.81,97.56,128.5,14.18,-4.28,-27.05
910,-162,145.19,103.12,12.07,-2.42,-23.35
920,-147.37,180.75,92.81,10.72,-2.08,-22.98
930,-147.37,180.75,92.81,10.72,-2.08,-22.98
940,-131.69,222.25,90.44,9.84,-2.21,-22.34
950,-154.31,276.75,89.94,6.3,-2.4,-16.06
960,-144.75,287.5,95.06,5.21,-2.24,-13.73
970,-123.44,283.12,107.44,4.33,-2.52,-12.03
980,-123.44,283.12,107.44,4.33,-2.52,-12.03
990,-105.31,265.44,121.62,3.15,-4.34,-9.79
1000,-63.13,208.87,131.06,3.17,-6.23,-8.13
1010,-26.31,175.75,119.12,3.38,-7.12,-7.81
1020,13.19,142.19,97.75,3.34,-7.95,-8.25
1030,13.19,142.19,97.75,3.34,-7.95,-8.25
1040,49.31,112.87,60.63,3.47,-8.16,-9.17
1050,89.37,83.37,-17.25,1.37,-5.41,-11.9
1060,96.94,84,-37.19,0.84,-4.46,-12.29
1070,96.94,84,-37.19,0.24,-3.58,-12.16
1080,96.25,89.62,-46.19,0.24,-3.58,-12.16
1090,96,96.25,-46.38,-0.27,-2.9,-11.59
1100,100.56,100.06,-42.88,-1.35,-2.96,-8.46
1110,107.69,95.69,-40.44,-1.92,-3.42,-7.46
1120,123.94,85.06,-41.56,-2.79,-4.62,-6.58
1130,146.62,67.81,-45.19,-2.79,-4.62,-6.58
1140,166.62,49.81,-52.94,-3.31,-5.33,-6.86
1150,178.56,26.44,-62.75,-3.52,-7.12,-7.85
1160,173.94,-16.25,-74.75,-3.99,-7.16,-7.93
1170,169.75,-72.87,-95.5,-4.51,-6.81,-8.43
1180,193.37,-118.69,-118.31,-4.51,-6.81,-8.43
1190,238.31,-155.44,-145.25,-4.86,-6.28,-9.73
1200,276.37,-169.37,-181.62,-5.53,-1.2,-13.66
1210,293.44,-163.75,-219.87,-5.58,1,-14.15
1220,290.12,-163.81,-249.62,-5.38,5.87,-16.04
1230,282.81,-182.81,-268.69,-5.38,5.87,-16.04
1240,270.06,-199,-276.5,-5.69,7.66,-18.06
1250,238.5,-198,-273.06,-5.37,11.21,-20.31
1260,198.69,-185,-260.81,-3.71,14.31,-20.5
1270,170.19,-165.5,-245.44,-3.52,15.86,-17.81
1280,156.81,-152.5,-237.12,-3.52,15.86,-17.81
1290,186.37,-163.12,-189.06,-2.8,16.75,-17.71
1300,201.37,-173,-140.5,-0.6,16.46,-26.03
1310,156.06,-182.44,-84.44,0.29,15.14,-27.44
1320,89.44,-177.69,-37.88,1.67,13.57,-28.26
1330,48.75,-136.37,-13.5,1.67,13.57,-28.26
1340,28.5,-81.87,-11.19,2.91,14.35,-24.98
1350,33.88,-43.38,-0.37,2.53,17.37,-20.02
1360,49.31,-31.62,36.44,3.04,16.99,-18.79
1370,36.81,-49.38,85.12,3.21,15.65,-19.38
1380,4.19,-79.56,138.25,3.21,15.65,-19.38
1390,-35,-105.75,188.06,3.84,12.95,-21.33
1400,-83.56,-114.69,216.31,7.03,6.56,-25
1410,-120.44,-99.87,219,8.22,5.91,-24.98
1420,-131.75,-72.87,207.31,9.59,5.61,-24.72
1430,-129.81,-44.94,191.87,9.59,5.61,-24.72
1440,-123.19,-19.56,178.62,11.06,5.78,-23.27
1450,-110.5,-0.06,175.56,11.01,5.95,-23.13
1460,-106.12,12.06,187.37,11.25,3.13,-23.48
1470,-123.69,22.31,211.81,11.8,1.68,-22.47
1480,-155.81,35.81,230.94,11.8,1.68,-22.47
1490,-178.81,38.19,239.69,11.76,0.79,-21.38
1500,-171.69,41.19,236.5,14.78,-5.37,-24.83
1510,-159.12,74.19,195.44,13.73,-4.51,-23.87
1520,-141.62,131.75,130.31,11.94,-2.65,-21.94
1530,-116.25,191.94,78.19,11.94,-2.65,-21.94
1540,-103.75,228.94,57.75,8.85,0.45,-16.56
1550,-100.31,236.75,62.06,7.73,0.66,-13.13
1560,-84,230.31,75.44,7.18,-0.34,-12.79
1570,-60.69,222.31,88.25,5.74,-2.84,-12.6
1580,-45.63,216.87,95.25,5.74,-2.84,-12.6
1590,-45.69,211.5,97.37,5.06,-3.8,-12.56
1600,-56.75,207.06,98.19,3.24,-6.14,-10.19
1610,-63.56,210.62,97.69,3.3,-6.41,-8.86
1620,-60.63,211.12,90.56,2.64,-6.05,-7.56
1630,-45.56,205.75,76.87,2.64,-6.05,-7.56
1640,-26.25,196.19,67.62,1.62,-5.69,-6.27
1650,-17.12,176.12,64.81,0.6,-5.91,-6.02
1660,-6.69,163.31,66.25,0.6,-5.91,-6.02
1670,3.19,146.62,70.56,0.57,-6.4,-6.15
1680,12.81,127.81,72.19,0,-7.8,-6.24
1690,26.25,103,71.12,0.05,-8.49,-6.18
1700,42.19,78.69,60.81,0.49,-9.01,-6.25
1710,59.56,60.75,33.38,0.52,-9.03,-5.96
1720,76.69,37.38,-0.25,0.16,-8.47,-5.58
1730,96.62,4,-25,-0.26,-7.87,-5.62
1740,119.06,-26.37,-43.88,-0.67,-7.22,-6.07
1750,134.19,-52.63,-56.44,-1.53,-6.19,-7.79
1760,135.31,-73.19,-65,-1.65,-6.21,-8.49
1770,126.37,-90.5,-78.25,-1.61,-5.99,-8.51
1780,126.5,-112.06,-98.56,-1.25,-4.13,-8
1790,146.25,-137.56,-122.19,-1.89,-2.5,-8.64
1800,175.37,-167,-137.87,-2.66,-1.01,-10.11
1810,194,-192.5,-142.94,-3.32,0.08,-11.98
1820,184.06,-225.56,-142.56,-3.36,1.54,-14.63
1830,153.06,-266.37,-149.69,-3.09,2.48,-15.01
1840,153.25,-241.37,-164.62,-2.49,3.96,-17.02
1850,184.62,-195.06,-175.75,-3.12,7.05,-21.09
1860,177.37,-153.69,-173.94,-3.34,8.46,-21.49
1870,136.31,-119.69,-161.19,-3.36,9.91,-20.3
1880,107.19,-101.37,-138.31,-3.19,11.03,-18.61
1890,97.69,-111.37,-110.06,-1.63,11.91,-17.93
1900,90.31,-141.31,-85.69,-0.62,11.87,-18.38
1910,108.5,-177.75,-70.44,1.44,10.94,-19.83
1920,118.19,-191.25,-74.62,4.3,8.77,-31.05
1930,65.75,-153.19,-98.69,5.02,10.26,-31.86
1940,32.88,-75.44,-119,5.21,13.25,-29.53
1950,49.69,-1.37,-120.06,7.81,17.08,-23.08
1960,48.56,22.87,-118.19,3.6,19.57,-20.04
1970,30.44,6.56,-53.44,5.61,21.41,-16.43
1980,40.81,-27.75,27.06,6.35,21.5,-16.5
1990,6.12,-71.5,105.69,8.06,17.96,-20.76
2000,-62.5,-96.69,170.75,9.44,14.66,-22.01
2010,-115.81,-98.75,207.19,11.38,11.48,-22.81
2020,-142.31,-87.06,214.5,13.98,7.55,-23.8
2030,-143.81,-64.75,207.19,14.38,7.31,-23.81
2040,-127.5,-35.31,201.81,13.74,7.62,-23.82
2050,-117.62,-6.62,208.31,13.62,7.15,-24.4
2060,-135.81,17.31,222.5,12.55,4.36,-25.25
2070,-169.44,40.69,243.31,11.99,1.95,-25.22
2080,-201,64.5,262.69,12.42,-0.95,-24.62
2090,-205.87,89.62,265.5,13.29,-5.79,-22
2100,-172.69,123.94,249.69,13.76,-7.04,-20.45
2110,-125.75,154.19,219.87,13.94,-7.31,-18.57
2120,-81.94,165.5,186.69,13.45,-6.79,-17.06
2130,-53,162.56,163.81,9.99,-5.2,-16.91
2140,-44.75,160,158.12,8.15,-5.07,-17.92
2150,-50.81,174.69,162.75,6.55,-5.48,-18.62
2160,-65,204.06,167.12,3.24,-7.02,-17.63
2170,-82.37,239.75,166.75,2.08,-7.41,-15.67
2180,-94.44,268,162.31,1.33,-7.75,-13.24
2190,-92.44,281.37,152.62,0.28,-8.56,-8.46
2200,-73.31,280.31,136.81,0.2,-8.6,-6.94
2210,-39.5,270.44,116.5,-0.13,-8.18,-5.37
2220,18,270.69,96.44,0.27,-7.88,-5.19
2230,61.19,260,71.25,-0.58,-7.34,-5.39
2240,60.19,210.69,55.13,-0.78,-7.09,-5.09
2250,38.06,163,45.75,-1.21,-6.78,-4.51
2260,33.5,131,41.81,-1.47,-6.88,-3.77
2270,48.63,104.62,36.63,-1.34,-7.36,-4.37
2280,61.38,85.25,22.87,-1.27,-7.67,-4.76
2290,71.69,76.5,0.56,-1.61,-7.62,-4.72
2300,85.12,73.5,-25.69,-2.45,-7.58,-3.55
2310,103.19,68.19,-54.63,-2.95,-7.15,-2.24
2320,127.12,45.44,-82.37,-3.9,-6.36,-1.04
2330,146.25,-3.81,-101.25,-5.75,-4.61,-0.26
2340,151.44,-76.12,-112.44,-6.63,-3.74,-0.53
2350,161.12,-161.19,-117.44,-6.45,-3.39,-1.81
2360,187.12,-241.25,-129.94,-6.25,-3.22,-4.3
2370,215.19,-312.44,-154.25,-3.74,-1.62,-10.54
2380,229.87,-392.44,-192.19,-2.81,0.69,-12.14
2390,236.62,-527.31,-236.06,-3.74,3.56,-13.55
2400,256.06,-510.5,-263.62,-5.29,7.33,-26.78
2410,239.25,-455.62,-268.81,-4.34,8.94,-32.29
2420,163.37,-381.75,-255.94,-2.81,10.52,-33.42
2430,120.5,-291,-232.62,-0.36,12.46,-34.05
2440,101.87,-196.25,-197.75,1.91,11.63,-36.21
2450,8.75,-106.25,-177.31,4.25,11.99,-33.37
2460,-56,-27.19,-177.44,5.73,13.84,-27.02
2470,-45.31,10.75,-172.75,7.45,16.85,-17.98
2480,-28.37,-3.44,-161.37,8.24,17.09,-15.51
2490,-27.06,-43.56,-134.94,5.01,18.85,-13.79
2500,-14.19,-79.94,-63.25,7.5,18.22,-13.63
2510,-20.87,-116.25,-5.37,8.79,17.2,-13.94
2520,-54.63,-157.44,34.88,9.06,16.63,-14.16
2530,-65.75,-185.25,66,8.9,16.19,-15.21
2540,-62.25,-196.62,94.87,9.7,14.72,-18.92
2550,-62.13,-196.75,121.12,9.51,14.8,-20.24
2560,-50.75,-183.12,150.81,9.09,14.84,-21.38
2570,-36.56,-166.94,188.37,9.35,13.24,-23.68
2580,-34.69,-152.19,229.12,9.22,11.65,-24.72
2590,-45.75,-134.37,269.56,8.87,9.52,-25.73
2600,-69.06,-113,304.56,9.32,6.1,-27.32
2610,-106.56,-79.56,316.5,11.04,-1.56,-29.27
2620,-128.56,-24.19,298.5,12.15,-4.03,-27.98
2630,-105.56,48.38,253.12,12.72,-5.36,-26.68
2640,-79.5,110.81,197.87,12.21,-5.7,-24.2
2650,-81.25,151,146.75,11.38,-4.4,-22.15
2660,-86.31,171.19,113.12,10.77,-3.15,-20.46
2670,-84.25,180.5,94,8.87,-1.91,-19.73
2680,-84.37,193.12,83.87,7.64,-1.42,-19.47
2690,-85.87,216.75,82.37,6.29,-0.99,-18.76
2700,-91.87,241.62,91.75,4.67,-0.86,-17.81
2710,-107.69,259,112.19,1.92,-2.67,-15.5
2720,-125.56,267.12,135.81,1.2,-4.16,-14.38
2730,-131.62,273.56,153.94,0.97,-5.79,-13.15
2740,-123,278.87,159.94,0.12,-8.79,-10.51
2750,-106.75,278.69,155.25,-0.25,-9.56,-9.17
2760,-85.37,272,152.12,-1.43,-9.54,-7.91
2770,-58.88,265.94,171.44,-2.2,-8.95,-6.76
2780,-26.06,249.75,164.69,1.98,-12.4,-5.66
2790,-17.12,218.37,94.75,0.87,-12.72,-4.54
2800,-7.94,188,43.31,0.9,-12.3,-3.03
2810,24.62,143.81,-1.44,0.7,-11.19,-3.46
2820,45.81,88.31,-40.13,0.68,-10.57,-4.28
2830,57.69,34.69,-73.69,0.32,-9.76,-5.25
2840,82.37,-2.37,-103.94,0,-9.01,-6.8
2850,102.81,-22.25,-133.87,-0.93,-7.4,-10.4
2860,107.75,-21.06,-165.75,-1.75,-6.47,-11.38
2870,100.87,-4.56,-197.81,-2.84,-5.62,-11.77
2880,71.87,16.44,-231.12,-5.07,-4.25,-10.96
2890,16.5,36.25,-269.19,-5.62,-3.52,-9.14
2900,-33.69,46,-317.56,-5.55,-1.81,-6.11
2910,-4.81,37.31,-373.94,-5.03,1.13,-3.22
2920,106.06,-79.81,-409.31,-4.03,8.94,-4.21
2930,215.5,-189.44,-433,-5.82,12.56,-8.69
2940,267.19,-302.12,-446.5,-6.2,15.18,-11.53
2950,261.81,-428.75,-448.56,-13.14,21.61,-21.79
2960,269.25,-338.62,-345.44,-12.83,21.95,-27.13
2970,250.56,-242.87,-244.69,-10.91,21.7,-31.73
2980,149.56,-129.25,-166.44,-7.45,21.82,-25.98
2990,75.19,-31.06,-103,-6.09,20.13,-20.57
3000,82.12,33.38,-60.75,-4.44,17.51,-17.52
3010,70.56,51.81,-45,-3.5,16.03,-14.3
3020,55.31,42.81,-39.56,-2.63,14.79,-8.53
3030,60.19,17.75,-38.31,-1.16,15.31,-6.23
3040,76.87,-36.19,-38.88,1.03,14.17,-5.95
3050,89.37,-115.44,-48.19,1.08,18.01,-11.28
3060,96.19,-152.12,-37.38,1.99,19.61,-14.28
3070,82,-157.62,-6.69,2.57,21.4,-15.56
3080,80.5,-130.94,39.75,3.48,22.21,-15.97
3090,75.81,-101.06,91.75,5.62,20.65,-15.91
3100,49.31,-81.87,135.75,7.19,19.14,-13.44
3110,29.87,-88.19,164.56,7.9,18.03,-11.43
3120,16.06,-124.62,191.19,9.36,14.49,-12.82
3130,-18,-183.25,216.56,9.88,12.26,-15.32
3140,-46.63,-236.5,230,10.22,10.47,-17.88
3150,-50,-259.56,233.37,10.36,8.77,-21.89
3160,-60.44,-247.31,230.06,9.91,6.37,-28.8
3170,-75.19,-210.12,227.12,9.76,5.39,-30.7
3180,-74.81,-146.44,217.75,10.09,4.56,-31.73
3190,-56.25,-63.69,194.81,9.72,4.58,-32.17
3200,-31.12,25.31,170.06,8.27,5.45,-31.93
3210,-23.75,111.94,158.12,6.84,6.51,-30.51
3220,-41.38,180.31,169.25,3.77,6.37,-25.58
3230,-76.06,221.69,196,3.09,5.01,-23.14
3240,-116.56,236.62,222.81,2.54,3.43,-21.32
3250,-143.69,239.25,243.69,2.12,1.6,-20.2
3260,-152.75,244.31,253.37,1.16,-1.81,-18.44
3270,-148.94,252.37,252.19,0.83,-2.78,-17.39
3280,-133.62,264,246.62,0.64,-3.77,-16.44
3290,-114.19,277.81,237.87,0.12,-5.74,-14.17
3300,-97.31,287.5,225.19,0.38,-6.48,-12.93
3310,-80.31,289.56,207.87,0.41,-6.98,-11.61
3320,-56.38,287.44,187.87,0.71,-7.33,-10.19
3330,-25.81,278.44,165.44,1.26,-7.95,-8.03
3340,1.69,263.69,136,1.67,-7.89,-7.14
3350,20.5,244.44,103.25,2.06,-7.67,-6.32
3360,34.19,220.87,72.5,1.78,-7.25,-5.4
3370,42.13,201.5,45.63,1.67,-7.4,-5.55
3380,41,191.44,22.44,2.31,-7.59,-5.74
3390,29.25,172.06,1.12,1.99,-7.43,-5.93
3400,18.5,146.5,-27.44,3.94,-7.61,-5.23
3410,16.31,118.37,-78.87,4.87,-7.64,-5.03
3420,20.25,92.25,-145.69,4.16,-6.75,-4.9
3430,43.19,74.87,-199.37,2.3,-2.73,-5.56
3440,43.19,74.87,-199.37,1.52,-0.89,-6.34
3450,79.56,47.31,-248.44,0.8,0.93,-5.83
3460,103.44,20.56,-249.56,-0.56,4.19,-5.39
3470,174.56,-1.81,-232.37,-0.73,3.68,-8.31
3480,200,-20.87,-217.87,-0.65,3.34,-9.78
3490,181.12,-41.88,-216,-0.67,3.66,-9.48
3500,181.94,-70,-217.69,-0.92,4.65,-8.47
3510,216.25,-106.44,-217.5,-1.5,4.43,-10.22
3520,242.12,-141,-218.44,-2.16,4.57,-12.24
3530,241.75,-174.06,-221,-2.75,6.51,-14.03
3540,241.75,-174.06,-221,-3.65,8.27,-15.21
3550,233.94,-160.56,-226.87,-4.64,9,-16.26
3560,230.69,-129.06,-219.69,-4.15,9.91,-16.96
3570,217.31,-102.56,-213.19,-3.88,13.32,-14.2
3580,212.69,-99.81,-203,-2.77,14.24,-13.26
3590,212.69,-99.81,-203,-2.06,14.98,-13.31
3600,214.25,-123.87,-199.94,-4.39,18.2,-16.2
3610,215.69,-177.25,-163.06,-3.46,19.65,-17.97
3620,218.94,-165.25,-103.5,-2.83,20.03,-20.55
3630,196.31,-131.56,-50.81,-2.06,20.14,-21.89
3640,196.31,-131.56,-50.81,0.86,20.34,-18.81
3650,161.81,-90.44,-2.12,2.65,20.24,-16.87
3660,140.37,-71.25,68.06,3.65,20.23,-16.28
3670,130,-83.06,95.75,4.07,20.49,-17.92
3680,93.44,-94.25,136.62,4.34,20.23,-17.12
3690,93.44,-94.25,136.62,4.87,19.29,-16.46
3700,54.63,-115.19,190.81,7.34,14.72,-19.9
3710,7.56,-170.81,268.94,9.01,11.33,-23.92
3720,-29.75,-150.62,258.87,9.84,9.84,-24.91
3730,-49.25,-110.56,240.87,9.81,9.78,-23.2
3740,-49.25,-110.56,240.87,10.41,5.83,-26
3750,-43.31,-73.81,236.62,11.11,4.12,-25.38
3760,-103.87,-7.62,221.62,11.25,3.42,-24.74
3770,-101,26.56,209,12.63,1.23,-24.34
3780,-105.81,47,192.87,13.25,1,-23.84
3790,-105.81,47,192.87,13.14,1.4,-23.87
3800,-106.75,63.44,167.75,12.17,2.11,-24.75
3810,-109,118.25,139.37,9.62,2.97,-23.67
3820,-119.87,150.81,152.56,8.91,2.32,-22.27
3830,-128.19,175.31,171.87,8.36,1.19,-20.93
3840,-128.19,175.31,171.87,6.93,-1.03,-17.92
3850,-135.75,193.06,184.94,6.56,-1.75,-16.42
3860,-145.56,210.56,184.69,6.21,-2.33,-15.06
3870,-149.44,210.87,173.06,6.4,-2.75,-13.59
3880,-150.56,198,152.44,6.57,-2.61,-11.29
3890,-150.56,198,152.44,6.57,-2.61,-11.29
3900,-141.87,170.69,126.87,6.5,-1.54,-11.13
3910,-86.06,137.69,96.31,2.79,1.36,-13.75
3920,-77.5,137.87,105.31,1.72,1.41,-13.77
3930,-81.75,141.19,129.19,0.74,0.77,-13.55
3940,-81.75,141.19,129.19,0.74,0.77,-13.55
3950,-81.44,148.56,162.37,-0.65,-2.72,-12.92
3960,-63,179.56,217.19,-0.05,-7.38,-10.45
3970,-44.5,186,224.37,0.38,-9.3,-8.88
3980,-10.5,185.19,232.06,-0.97,-10.14,-6.16
3990,-10.5,185.19,232.06,-0.97,-10.14,-6.16
4000,41.19,181.5,247.69,6.42,-14.13,-6.12
4010,80.81,121.06,68.81,4.03,-14.31,-5.14
4020,114.19,95.62,-9.31,3.16,-12.97,-6.38
4030,137.12,79.94,-72.5,2,-11.33,-7.34
4040,137.12,79.94,-72.5,2,-11.33,-7.34
4050,139.81,73.81,-114.25,1.29,-9.87,-7.01
4060,185.62,62.25,-171.12,1.79,-8.83,-5.45
4070,208.87,41.5,-211.19,1.54,-7.04,-5.61
4080,208.87,41.5,-211.19,1.6,-1.64,-7.54
4090,220.25,10.13,-248.87,1.6,-1.64,-7.54
4100,225.56,-28.12,-274.25,1.11,0.92,-9.76
4110,226.75,-54.13,-286.19,0.02,3.9,-15.58
4120,216.75,-57.25,-285.25,-1.04,4.22,-17.76
4130,186.44,-29.37,-268.44,-0.46,3.76,-15.94
4140,154.94,18.12,-250.31,-0.46,3.76,-15.94
4150,141.94,55.25,-249.12,0.26,3.94,-13.32
4160,147.94,59.44,-263.56,0.12,8.39,-9.98
4170,164.69,39.94,-279.12,0.29,10.64,-10.37
4180,177.87,10.06,-288.94,-0.22,12.73,-11.44
4190,182.44,-21.19,-289.19,-0.22,12.73,-11.44
4200,179.5,-35.5,-278.75,0.22,15.94,-11.34
4210,190.75,-63.69,-252.75,-0.75,16.23,-13.6
4220,196.81,-108.62,-220.62,-0.96,16.93,-15.7
4230,169.44,-134.37,-169.69,-0.08,16.18,-16.94
4240,151.69,-115.37,-113,-0.08,16.18,-16.94
4250,123.25,-90.62,-72.75,1.03,15.42,-16.42
4260,92.12,-75.5,-49.38,2.1,14.38,-12.5
4270,69.31,-62.44,-34.13,2.04,14.08,-10.22
4280,43.19,-60.44,-22.94,1.4,13.65,-9.18
4290,41.06,-77.75,-6.31,1.4,13.65,-9.18
4300,40.31,-123.81,20.75,1.34,11.61,-11.64
4310,12.31,-163.06,41.19,6.1,6.05,-14.31
4320,-3.06,-207.56,48.69,6.29,6.47,-17.92
4330,-23.87,-224.44,-2.12,5.91,9.94,-18.53
4340,-10.31,-175.94,-66,5.91,9.94,-18.53
4350,-7.56,-136,-105.75,4.73,14.63,-16.51
4360,-4,-119.56,-98.25,6.08,21.63,-12.7
4370,6.06,-133.31,-63,5.94,22.62,-13.65
4380,14.31,-161.94,-24.44,5.9,23.14,-14.64
4390,13.31,-182.5,19.69,5.9,23.14,-14.64
4400,-1.81,-196.25,71.37,6.99,22.03,-15.17
4410,-17.19,-207.62,123.94,8.8,18.55,-16.07
4420,-31.31,-217.75,163.81,9.28,17.34,-16.18
4430,-46.75,-226.19,185.44,12.18,14.75,-19.16
4440,-59.69,-235.25,189.31,12.18,14.75,-19.16
4450,-66,-233.44,174.44,11.93,15.38,-20.83
4460,-60.5,-217.06,166.56,10.59,14.8,-28.13
4470,-79.62,-177.5,173.44,10.13,13.87,-28.33
4480,-119.19,-120.81,188.44,9.73,12.45,-27.87
4490,-146.81,-54.19,206.94,9.73,12.45,-27.87
4500,-163.19,9.63,218.56,8.72,8.99,-24.79
4510,-172.62,58.63,223.12,7.39,7.34,-21.21
4520,-179.06,88,223.25,6.73,6.9,-20.18
4530,-176.87,100.44,224.25,5.62,4.92,-20.9
4540,-173.44,100.94,230.44,5.62,4.92,-20.9
4550,-171.62,104.75,238.25,5,4.06,-21.62
4560,-169.06,122.19,243.81,1.19,-0.43,-21.04
4570,-175.56,153,254.75,0.82,-2.33,-19.32
4580,-189.12,185.31,271.56,0.72,-4.21,-17.69
4590,-192.62,207.44,284.94,0.72,-4.21,-17.69
4600,-177.81,217.5,289.44,0.85,-5.95,-16.31
4610,-146.12,219.06,282.94,2.2,-10.53,-14.22
4620,-106.69,222.31,262.12,2.44,-11.07,-13.43
4630,-65.62,232.5,222.5,2.64,-10.04,-9.76
4640,-37,249.25,173.31,2.64,-10.04,-9.76
4650,-22.31,259.19,124.62,3.53,-8.77,-7.23
4660,-9.56,246.94,74.37,4.85,-6.34,-4.16
4670,1.94,212.69,22.94,4.85,-6.34,-4.16
4680,19.81,161.5,-14,4.7,-2.75,-3.54
4690,46.56,107.25,-31.06,4.71,-1.5,-4.8
4700,62.19,67.94,-35.94,4.66,-0.39,-6.06
4710,73.56,45.88,-33.31,4.63,0.97,-7.87
4720,87.06,36,-28.06,4.7,1.29,-8.58
4730,105.37,44.81,-26,4.54,1.05,-9.51
4740,115.5,58.94,-27.81,4.56,0.79,-9.17
4750,132.31,73.81,-33.88,4.96,-0.05,-9.33
4760,145.75,86.19,-51.94,4.64,0.39,-7.95
4770,162.5,87.31,-74.62,4.3,0.45,-7.39
4780,171.12,80.56,-100.5,3.83,0.6,-6.93
4790,155.62,63.69,-133.87,2.87,2.03,-5.68
4800,166.25,42.13,-162.25,1.76,3.59,-5.34
4810,198.19,19.56,-178.44,0.43,6.59,-6.65
4820,221.69,-15.63,-180.87,0.05,7.68,-7.96
4830,243.06,-53.38,-174.06,-0.7,8.13,-9.9
4840,265.12,-70.44,-164.62,-1.48,8.15,-11.98
4850,269.37,-73.44,-155.94,-2.25,7.68,-15.24
4860,259.37,-47.94,-155.31,-2.43,7.32,-15.46
4870,249.75,-12.81,-162.94,-2.41,7.36,-14.64
4880,237.12,6.06,-173.56,-2.42,9.01,-11.36
4890,238.81,1.25,-180.56,-2.48,9.45,-11.08
4900,251.5,-12.69,-185.81,-2.27,10.03,-11.41
4910,250.5,-22.19,-196.5,-1.76,11.14,-11.13
4920,236.37,-46.88,-206.56,0.14,13.79,-11.79
4930,214.94,-92.31,-215.94,1.16,15.03,-13.04
4940,184.75,-136.69,-235.31,0.99,16.02,-13.91
4950,142.94,-156.12,-221.56,-0.78,20.72,-15.66
4960,126.81,-131.31,-166.44,0.48,21.66,-15.82
4970,123.81,-114.87,-115.5,1.3,22.3,-15.21
4980,124.12,-113.87,-62.75,2.62,22.89,-14.65
4990,140.12,-121.94,-5.81,3,22.01,-16.13
5000,129.37,-124.75,50.81,4.07,20.87,-16
5010,98.25,-130.62,100.19,5.27,18.98,-15.86
5020,65.87,-136.44,131.37,7.48,15.8,-15.45
5030,33.13,-144.37,143.94,7.94,15.02,-15.18
5040,8.69,-153.12,148.25,8.15,14.83,-15.21
5050,-6.87,-159.56,152.25,9.17,14.84,-16.35
5060,-21.37,-163.37,156.81,9.79,14.48,-17.27
5070,-47.75,-166.69,155.25,9.64,14.92,-17.56
5080,-70.87,-168.5,156.31,9.02,15.62,-17.8
5090,-84.37,-169.62,169.87,9.09,14.35,-20.42
5100,-103.56,-165.31,186.62,8.6,13.41,-21.69
5110,-118.81,-148.19,203.75,8.2,11.78,-23
5120,-137.56,-120.69,216.56,8.59,7.49,-24.22
5130,-159.62,-86.31,216.62,8.53,6.02,-23.98
5140,-175.87,-46.88,204,8.27,5.11,-23.36
5150,-186.56,-7.19,184.25,7.89,4.67,-22.37
5160,-199.25,25,163.37,6.41,4.79,-19.66
5170,-207.87,49,147.81,5.63,5.36,-18.42
5180,-216.37,65.12,142.81,5.08,5.64,-16.52
5190,-223.69,60.94,145.12,3.18,4.68,-14.39
5200,-210.25,51.06,155.12,2.67,3.09,-15.33
5210,-201.69,50.94,164.5,2.31,1.42,-15.92
5220,-209.19,60.31,166.94,1.8,0.09,-15.45
5230,-212.75,72.5,165.12,1.3,-3.2,-13.59
5240,-206.37,81.69,156.81,1.43,-4.67,-12.38
5250,-193.37,85.75,137.69,1.65,-5.99,-11.28
5260,-174.25,86.87,105.87,2.3,-8.03,-9.33
5270,-152.25,83.56,59.63,2.5,-7.89,-8.23
5280,-126.62,71.62,4.87,2.4,-7.12,-7.14
5290,-88.62,51.63,-47.06,0.81,-4.75,-6.95
5300,-47.94,35.81,-83.44,0.21,-3.79,-7.12
5310,-18,25.19,-104.75,-0.09,-3.05,-6.67
5320,9.44,11.94,-116.94,-0.35,-2.67,-6.24
5330,44.5,-6.12,-125.56,-0.34,-2.87,-7.23
5340,71.37,-25.81,-136.87,-0.58,-3.01,-8.17
5350,85.25,-46.31,-149.12,-0.48,-3.02,-9.16
5360,102.81,-65.12,-163.69,0.49,-2.38,-13.97
5370,124.37,-69.25,-182.12,0.37,-1.91,-17.07
5380,128.75,-44.5,-202.69,0.54,-1.45,-18.64
5390,123.19,-6.12,-220,1.45,-1,-18.96
5400,129.62,35.44,-238.94,2.53,2.66,-16.73
5410,159.06,71.25,-255.56,2.37,5.66,-15.14
5420,202.94,89.94,-252,1.98,8.4,-14.07
5430,234.12,88.94,-222.5,2.65,11.6,-13.19
5440,237.12,75.37,-176.81,3.72,11.65,-12.86
5450,224.19,58.56,-130.19,4.79,10.99,-12.69
5460,211.12,43.75,-96.25,6.35,9.94,-12.79
5470,197.37,27.19,-83.44,8.66,9.79,-13.48
5480,190.12,8.13,-86.25,9.53,10.65,-14.7
5490,191.87,-6.25,-94.37,10.05,12.11,-16.64
5500,189.25,-9.69,-98.44,9.48,15.74,-20.81
5510,172.12,2.19,-89.25,9.05,16.87,-21.66
5520,143.06,18.69,-63.19,9.26,16.81,-22.87
5530,121.62,53.94,-36.31,8.81,16.69,-22.75
5540,107.19,97.94,-14.44,8.56,16.51,-21.24
5550,94.06,136.87,2.31,8.36,16.76,-18.61
5560,83.37,147.44,20.87,8.19,16.76,-16.48
5570,76.44,131,39.38,8.16,15.2,-14.95
5580,72.56,110.94,46.25,7.05,15.48,-14.51
5590,109.19,102,60.75,5.81,14.74,-16.53
5600,121.94,107.69,82.69,3.2,13.85,-17.91
5610,82.75,110.94,113.75,1.86,12.87,-17.57
5620,40.81,120.94,152,1.46,10.64,-17.41
5630,-10.25,119.87,181.44,2.64,7.57,-17.54
5640,-64.81,113.5,173.94,4.9,4.73,-16.85
5650,-92.19,115.25,124.37,4.76,6.69,-15.67
5660,-63.25,129.06,68.62,3.98,9.39,-15.61
5670,-31.19,147.31,35.13,1.59,13.14,-16.97
5680,-59.88,161.44,28.31,0.4,14.42,-16.12
5690,-127.12,172.12,42.88,-0.45,15.24,-14.05
5700,-175.94,178.44,73.12,-0.84,15.45,-11.73
5710,-187.25,172.12,109.56,-0.89,13.24,-9.02
5720,-186.06,150.12,138.56,-0.83,12.03,-8.65
5730,-191.25,118.44,157.69,-0.8,11.03,-8.46
5740,-196.81,91.62,171.62,-0.81,8.62,-8.44
5750,-193.56,76.31,179.62,-0.63,7.56,-8.26
5760,-178.31,70.12,182.25,-0.2,6.32,-7.94
5770,-154.44,64.31,175.12,0.02,4.33,-7.16
5780,-124.75,58.5,159.19,-0.08,3.75,-6.92
5790,-100.06,51.13,142.19,-0.16,2.87,-7.15
5800,-92.5,43.88,125.31,-0.1,2.12,-7.11
5810,-91.56,25.62,108.81,-0.53,0.46,-6.84
5820,-86.12,-2.75,92.69,-0.53,-0.39,-7.08
5830,-85.94,-27.69,75.94,-0.4,-1.04,-7.1
5840,-89.31,-54.69,61.75,-0.93,-1.96,-7.66
5850,-81.69,-70.44,54.5,-0.97,-2.63,-8.24
5860,-67.37,-72.94,49.25,-0.62,-3.4,-8.52
5870,-60.19,-72.31,36.88,-0.15,-4,-8.34
5880,-63.63,-83.87,11.69,0.67,-3.74,-7.97
5890,-72.44,-107.06,-24.31,0.09,-2.05,-7.84
5900,-71.44,-137.75,-50.19,-0.57,-0.32,-8.36
5910,-56.31,-170.31,-53.19,-0.01,-0.07,-11.57
5920,-52.88,-207.94,-45.25,0.2,-0.38,-12.15
5930,-67,-257.81,-34.56,1.45,-1.36,-13.79
5940,-54.06,-251.69,-32.25,1.18,-3.56,-17.18
5950,-52.19,-234.06,-36.94,5.53,-7.35,-18.46
5960,-52.56,-211.69,-61.63,7.32,-7.28,-15.72
5970,9.19,-201.31,-101.19,7.93,-6.16,-16.04
5980,77.81,-205.87,-128.94,9.65,-2.25,-18.74
5990,89.37,-226.56,-130.62,10.89,-1.11,-19.4
6000,109.44,-250.81,-109.56,12.28,-1.73,-22.22
6010,129.19,-253.62,-91.75,13.74,-2.97,-24.98
6020,133.75,-224.62,-94.06,16.13,-3.23,-26.7
6030,140.94,-176.62,-112.44,16.58,-2.42,-26.48
6040,146.5,-127.5,-137.19,16.59,-0.88,-25.29
6050,151.12,-87.44,-157,16.13,2.88,-22.75
6060,158.94,-57.31,-169.62,15.48,4.55,-21.48
6070,180.19,-32.69,-173.62,15.01,5.24,-22.02
6080,197.69,-1.37,-178,13.59,6.81,-23.8
6090,177,38.56,-187.44,12.15,8.32,-22.97
6100,150.12,77.81,-196.94,11.02,9.89,-22.66
6110,144.81,121.56,-199.06,9.57,11.8,-22.28
6120,133.19,159.94,-183.69,6.79,14.59,-19.95
6130,119.5,192.94,-149.69,6.08,14.82,-17.96
6140,114.19,217.37,-103.25,5.94,14.33,-15.53
6150,106.87,220.37,-55.88,6.22,12.07,-11.07
6160,96.56,196.69,-18.37,6.46,10.86,-10.07
6170,88.37,150,8.88,6.79,9.75,-10.67
6180,81.31,103.44,25.62,6.78,8.79,-12.8
6190,59.25,75.31,35.63,6.67,7.98,-16.38
6200,35.81,69.69,41.19,6.38,8.33,-17.48
6210,28,85.69,45.19,5.52,8.84,-18.57
6220,19.87,116.56,55.81,4.28,8.27,-18.31
6230,-2.75,145.5,70.31,4.1,7.49,-16.85
6240,-27.44,159,82.31,4.26,6.65,-15.43
6250,-44.25,151.56,86.06,4.39,6.27,-14.35
6260,-46.88,132.06,81.56,3.78,6.87,-14.84
6270,-45.25,115,74.94,3.06,7.52,-16.17
6280,-60.69,103.25,75.94,2.55,7.72,-17.51
6290,-90.19,104.31,82.31,1.77,7.55,-17.99
6300,-115.56,118,85.62,0.65,8.21,-17.1
6310,-124.12,137.19,95,0.36,7.33,-16.63
6320,-148.94,145,105.81,-0.03,5.26,-13
6330,-175.81,138.12,107.69,-0.12,4.8,-11.68
6340,-168.81,125.06,106,-0.09,4.22,-11.47
6350,-160.5,110.19,100.5,-0.18,3.78,-11.61
6360,-175.81,93.06,93.06,-0.63,2.96,-10.9
6370,-197.94,74.75,87.25,-0.51,2.52,-10.42
6380,-211.31,57.13,81.69,-0.29,1.97,-10.08
6390,-217.06,41.5,73.62,-0.1,0.57,-9.77
6400,-221.44,28.94,62.13,-0.28,0.21,-9.35
6410,-227.25,16,52.56,-0.37,-0.3,-8.56
6420,-220.44,1.25,46,-0.34,-0.9,-7.85
6430,-199.31,-13.31,40.06,-0.33,-2.94,-7.68
6440,-182.31,-29.87,35.06,-1.01,-4.27,-7.5
6450,-163.5,-38.25,30.94,-0.82,-6.41,-7.32
6460,-140.19,-38.44,18.06,-2.35,-9.83,-5.53
6470,-102.94,-38.75,3.87,-3.52,-10.67,-4.46
6480,-31.06,-33.94,-1.62,-1.28,-11.97,-2.41
6490,73.06,-89.56,-61,2.37,-15,-0.84
6500,147.31,-231.06,-182.94,-2.03,-10.56,-4
6510,217.81,-351.69,-269.81,-4.41,-6.56,-8.5
6520,287,-456.06,-296.25,-4.08,-4.77,-13.31
6530,267,-531.87,-294,0.58,-3.16,-24.43
6540,210.44,-468.44,-305.69,3.45,-2.03,-27.67
6550,210.44,-468.44,-305.69,5.13,-0.67,-28.47
6560,120.06,-279.44,-280.31,8.45,1.34,-26.09
6570,110.12,-186.69,-241.87,9.76,1.2,-23.98
6580,114.06,-127.37,-199.31,10.86,0.72,-21.93
6590,132.12,-107.06,-162.69,12.12,-0.2,-21.08
6600,157.37,-113.19,-140.81,14.17,-0.45,-23.48
6610,177.44,-121.62,-136.19,14.2,0.53,-25.4
6620,193.81,-109.75,-137,14.04,1.78,-26.91
6630,200.44,-72.19,-131.5,13.86,2.5,-28.23
6640,173.87,-26.87,-118.19,12.05,3.54,-26.59
6650,173.87,-26.87,-118.19,11.57,3.35,-25.45
6660,97.37,87.69,-116.56,11.49,3.11,-23.7
6670,73.5,136.94,-127.12,8.95,5.81,-18.76
6680,67.44,160.06,-125.62,7.95,6.7,-17.9
6690,56.31,165.75,-110.06,6.83,7.66,-17.43
6700,56.31,165.75,-110.06,5.86,7.9,-17.06
6710,42.38,168.5,-78.12,5.9,7.69,-15.81
6720,-6.06,164.62,3.37,6.55,6.5,-15.13
6730,-20.25,151.75,32.38,7.37,4.4,-15.26
6740,-40.81,134.62,34.81,6.68,3.38,-14.91
6750,-40.81,134.62,34.81,6.23,3.56,-15.63
6760,-46.69,120.94,25.25,5.78,3.66,-16.61
6770,-43.56,112.62,15.88,5.82,4.95,-17.59
6780,-60.81,111.12,12.94,5.69,6.36,-17.76
6790,-70.25,116.81,13.81,5.51,7.54,-17.72
6800,-70.25,116.81,13.81,4.3,8.55,-17.27
6810,-74.5,124.19,21.12,4.08,8.45,-16.68
6820,-91,127.44,53.5,3.25,9.02,-15.58
6830,-66.19,132.37,73.44,2.68,8.54,-15.47
6840,-40.5,134.12,91.5,4.46,5.52,-15.89
6850,-40.5,134.12,91.5,4.83,5.75,-14.98
6860,-64.37,117.62,87.44,4.53,7.07,-14.54
6870,-41.5,85.62,39.94,2.26,10.05,-16.92
6880,6.19,91.5,33.44,0.93,11.01,-18.45
6890,0.75,101.75,45.31,-0.28,11.57,-19.24
6900,0.75,101.75,45.31,-1.53,11.77,-18.93
6910,-55.19,111.62,76.31,-2.08,9.73,-16.32
6920,-163.37,126.31,164.94,-1.25,8.2,-14.98
6930,-188.31,124.56,187.12,-1.18,7.04,-13.82
6940,-201.81,116.62,192.5,-1.77,5.22,-11.82
6950,-201.81,116.62,192.5,-1.77,5.22,-11.82
6960,-203.81,104.81,192.44,-1.63,4.32,-11.22
6970,-179.37,82.31,177.19,-1.18,2.58,-10.52
6980,-168.81,69.56,161.25,-0.61,1.22,-9.88
6990,-165.75,51.69,143.25,-0.24,0.99,-9.64
7000,-165.75,51.69,143.25,-0.24,0.99,-9.64
7010,-165.12,30.44,124.31,0.2,0.94,-9.48
7020,-153.94,-11.13,91.19,0.47,1.26,-11.2
7030,-145.87,-24,83.69,0.2,0.87,-12.78
7040,-154.44,-27.81,86.31,-0.86,-1.05,-14.12
7050,-154.44,-27.81,86.31,-0.86,-1.05,-14.12
7060,-178.31,-26.19,99.69,-0.73,-2.18,-13.4
7070,-176.62,-25.62,131.37,2.93,-6.86,-12.41
7080,-159.94,-21.75,92.19,7.58,-11.37,-11.47
7090,-163.81,-19.37,-0.19,6.36,-9.35,-8.7
7100,-163.81,-19.37,-0.19,6.36,-9.35,-8.7
7110,-138.75,-28.81,-91.5,4.11,-6.04,-6.89
7120,-79.75,-59.75,-133.31,3.11,-4.81,-11.39
7130,-55.56,-99.12,-134.37,3.92,-5.15,-11.56
7140,-85.06,-131.12,-130.62,4.4,-5.38,-11.86
7150,-106,-150.25,-135.19,4.4,-5.38,-11.86
7160,-90.56,-154,-148.06,5.06,-5.82,-13.66
7170,-72.37,-148.69,-164.56,6.16,-5.11,-12.99
7180,-60.31,-139.69,-183.81,7.32,-3.32,-12.09
7190,-32.06,-132.37,-205.12,7.38,-1.91,-12.22
7200,14.5,-128.81,-225.81,7.38,-1.91,-12.22
7210,54.5,-131.75,-240.87,7.52,-0.45,-12.56
7220,73.25,-142,-245.31,9,3.47,-14.26
7230,83.69,-155.37,-241.31,8.99,4.06,-15.43
7240,97,-162.19,-230.94,9.18,4.41,-16.3
7250,107.12,-155.81,-216.31,9.18,4.41,-16.3
7260,115.94,-136.87,-200.62,9.86,5.37,-17.83
7270,119.94,-112.12,-188.12,10.15,6.1,-18.16
7280,115,-85.37,-175.44,10.01,7.47,-18.12
7290,105.44,-64.75,-166.75,9.51,7.84,-18.82
7300,100.56,-53.31,-160.94,9.51,7.84,-18.82
7310,102.56,-40.75,-152,9.16,8.07,-19.43
7320,103.31,-19.69,-140.06,7.79,10.65,-17.77
7330,103.75,4.62,-125.19,7.44,11.61,-17.48
7340,117.81,24.25,-107,6.77,12.3,-17.84
7350,139.44,34.25,-83.19,6.77,12.3,-17.84
7360,144.37,40.56,-55.13,5.5,12.5,-18.72
7370,125.81,47.63,-20.81,6.66,9.69,-18.4
7380,91.87,56.5,7.75,7.48,8.92,-17.81
7390,68.19,68.06,16.37,7.41,10.21,-17.86
7400,74.37,83.75,4.37,7.41,10.21,-17.86
7410,88.75,103.31,-15.94,6.44,12.07,-17.78
7420,89.31,121.12,-23,4.04,14.3,-16.89
7430,79.19,132.37,-9.31,3.94,13.56,-16.65
7440,63.19,139.31,19.75,4.28,12.17,-16.52
7450,43,140.12,56.56,4.28,12.17,-16.52
7460,17.69,137,84.75,4.76,10.91,-16.3
7470,-3.25,131.87,97.5,5.14,10.96,-16.08
7480,-5.19,128.62,98.94,4.51,11.84,-16.52
7490,2.81,128.62,97.31,2.69,12.52,-17.31
7500,5.75,129.81,103.5,2.69,12.52,-17.31
7510,1,135.06,120.19,2.06,12.06,-17.53
7520,-16.87,140,143.62,1.49,10.2,-16.87
7530,-43.25,141.94,167,1.28,8.4,-15.45
7540,-68.94,137.62,183.12,1.28,7.92,-15.62
7550,-77,131.31,188,1.28,7.92,-15.62
7560,-71.94,129.75,190.44,1.4,6.9,-16.08
7570,-84.37,128.69,184.12,0.29,6.36,-14.23
7580,-92.37,133.75,169.56,-0.23,6.28,-13.69
7590,-85.56,142.5,159,-1.24,5.57,-11.72
7600,-88.75,146.06,157.81,-1.24,5.57,-11.72
7610,-114.81,136.56,162.06,-1.49,5.07,-10.51
7620,-141.75,113.87,170.56,-0.75,3.11,-9.02
7630,-154.25,83.87,178.12,-0.33,0.81,-8.96
7640,-153.5,53,178,0.04,-0.1,-9.05
7650,-147.31,27.62,171.94,0.04,-0.1,-9.05
7660,-145.25,4.69,162.37,0.28,-0.87,-9
7670,-148.81,-17.19,150.06,1.17,-3.53,-10
7680,-155.19,-39.25,139.37,1.71,-4.36,-10.66
7690,-162.31,-56.63,128,2.17,-4.82,-11
7700,-175.19,-70.56,113.44,2.17,-4.82,-11
7710,-181.94,-79.31,95.62,2.06,-4.55,-10.57
7720,-164.31,-83,80.94,1.88,-3.63,-10.7
7730,-125.5,-80.87,66.94,1.88,-3.63,-10.7
7740,-103.25,-80,58.63,1.57,-2.91,-8.41
7750,-90.5,-93.75,55.63,1.66,-3.39,-7.72
7760,-44.63,-107.06,51.56,1.52,-4.54,-8.17
7770,10.19,-111.56,42.94,1.73,-6.08,-9.2
7780,30.56,-111.5,24,2.13,-8.16,-11.57
7790,1.56,-116.25,-4.31,1.67,-8.13,-12.32
7800,-54.75,-124.19,-33.19,1.7,-8.02,-13.13
7810,-96.94,-125.56,-56.38,2.72,-8.94,-14.86
7820,-121,-115.56,-82.12,3.35,-9.21,-15.2
7830,-142.25,-98.56,-120.94,3.65,-8.69,-14.71
7840,-150.81,-78.37,-171.87,3.91,-5.16,-12.07
7850,-124.94,-63.5,-222.87,3.89,-2.7,-11.09
7860,-70.56,-58.94,-263.56,3.76,-0.53,-10.92
7870,-14,-66.62,-287.69,3.75,1.36,-11.17
7880,30.75,-80.06,-295.5,3.93,4.45,-12.73
7890,66.31,-94.06,-285.56,4.05,4.76,-14.4
7900,89.94,-104.31,-262.75,4.36,4.3,-16.7
7910,92.62,-98.62,-240.87,6.62,2.84,-19.59
7920,71.94,-81.94,-230.19,7.13,2.77,-19.52
7930,59.06,-59.94,-235.31,7.02,3.83,-18.97
7940,78.62,-30,-244.06,7.45,5.34,-17.59
7950,119.75,-17.87,-243.87,7.93,8.77,-16.52
7960,181.12,-22,-233.62,7.9,9.37,-17.85
7970,238.12,-24.94,-212.87,7.93,9.12,-20.33
7980,251.44,-19.19,-185.44,7.91,8.57,-24.91
7990,202.94,1.25,-157.87,7.64,8.61,-24.96
8000,128.37,41.13,-133.62,7.16,9.14,-23.05
8010,78.12,89.25,-109.56,6.81,9.42,-20.39
8020,53.75,116.37,-84.19,6.01,9.64,-15.75
8030,40.31,117.06,-59.94,5.66,9.74,-14.32
8040,39.75,100.62,-35.44,5.48,9.66,-13.96
8050,40.56,71,-9.19,6.15,8.73,-16.16
8060,29.19,39.56,13.44,6.77,8.46,-17.67
8070,11.5,20.19,24.06,7.09,8.46,-19.09
8080,8.75,22.37,25.37,7.59,8.52,-21.26
8090,21.44,41.13,21.31,7.24,8.41,-21.94
8100,36.31,71.12,12.38,7.17,7.93,-22.21
8110,55.13,118.37,-5.25,7.25,6.99,-22.41
8120,50.81,162,-33.5,6.09,7.74,-19.37
8130,-14.19,161.75,-61,5.63,9.36,-17.28
8140,-66.19,147.75,-75.87,5.27,10.64,-16.18
8150,-74.12,140.62,-79.06,3.79,11.38,-16.69
8160,-87.5,132.69,-77.19,1.99,12.1,-16.97
8170,-127.56,131.44,-67.37,0.21,13.19,-16.6
8180,-167.69,142.5,-38,-0.9,13.78,-16.07
8190,-184.31,170.69,5.44,-2.36,13.73,-13.22
8200,-178.12,203.31,52.88,-2.52,13.34,-11.52
8210,-155.25,224.06,105.94,-1.51,11.95,-10.39
8220,-150.5,216.87,151.37,0.21,8.47,-8.54
8230,-160.81,192.19,173.31,0.71,7.79,-7.48
8240,-142.06,180.25,178.75,1.92,6.01,-7.54
8250,-126.25,168.87,167.56,2.93,4.55,-7.78
8260,-145.87,159.56,136.06,2.37,4.24,-6.61
8270,-161.19,151.69,102.06,1.78,5.04,-5.77
8280,-149.12,136.12,82.56,1.78,5.75,-4.91
8290,-118.62,108.94,78.75,2.46,5.62,-4.03
8300,-98.06,46.44,82.94,2.27,5.54,-4.55
8310,-84.5,-7.44,87.56,2.11,5.28,-5.94
8320,-67.56,-44.25,94.44,1.69,4.68,-7.86
8330,-56.56,-57.13,105.06,1.47,2.38,-10.44
8340,-62.44,-51.44,115,1.63,1.26,-10.51
8350,-77.62,-44.13,120.69,1.43,0.3,-10.11
8360,-80.75,-35.31,120.81,1.24,-0.34,-8.04
8370,-60.38,-28.19,117.56,0.68,1.09,-7.62
8380,-23.12,-34.88,131,0.24,1.46,-7.24
8390,23.06,-52.63,164,1.32,-2.54,-10.42
8400,43.69,-74.69,192.75,4.94,-10.55,-14.75
8410,-47.31,-118.56,159.31,7.84,-13.86,-14.77
8420,-253.5,-159.44,40.81,3.87,-12.12,-9.69
8430,-306.62,-138.69,-67.87,1.92,-10.18,-3.16
8440,-165.31,-101.06,-139.69,1.45,-10.33,-3.32
8450,-25.56,-107.31,-207.62,-0.5,-9.34,-3.42
8460,45.75,-152.75,-263.25,-0.43,-7.77,-6.02
8470,99.12,-212.75,-302.69,0.93,-6.68,-9.1
8480,143.5,-272.62,-346.69,1.22,-3.94,-12.28
8490,179.19,-319.5,-387.5,1.28,-0.55,-17
8500,180.69,-310.94,-403.44,3.68,6.45,-24.45
8510,127.94,-263.75,-387.75,5.09,9.33,-24.54
8520,86.06,-182.06,-350.75,6.15,11.32,-23.52
8530,86.62,-93.19,-297.56,8.39,12.8,-18.45
8540,100.75,-34.63,-236.19,9.44,11.94,-16.15
8550,111.69,-34.56,-172.37,10.92,9.88,-15.69
8560,113.69,-77.81,-119.5,12.62,7.22,-17
8570,116.81,-118.12,-97.56,14.29,4.52,-21.81
8580,131.19,-129.75,-103.19,14.32,4.75,-24.29
8590,134.44,-117.56,-119.37,13.77,6.2,-26.02
8600,122.56,-82.94,-128.37,11.94,9.36,-28.12
8610,100.19,-30.5,-119.44,11.17,9.97,-28.07
8620,65.69,31.81,-97,10.71,10.06,-27.08
8630,26.94,92.75,-71.31,9.35,9.27,-21.88
8640,-4.75,139,-50.06,8.79,8.43,-18.5
8650,-11.5,160.62,-33.69,8.95,7.4,-16.15
8660,11.56,159.5,-27.25,8.69,6.94,-15.21
8670,40.56,148.62,-31.56,7.46,7.95,-15.68
8680,53.13,136.37,-34.75,6.74,8.72,-16.37
8690,47.88,130.69,-30.81,6.53,8.92,-17.48
8700,39.81,140.12,-23.56,7.42,8.75,-18.68
8710,25.19,161.75,-29.62,6.96,10.16,-17.68
8720,19.5,187,-48.81,5.98,12.03,-16.2
8730,30.75,202.37,-61.25,5.4,13.51,-15.06
8740,48.44,198.81,-59.88,3.51,15.68,-14.35
8750,66.81,181.37,-45.56,2.74,16.28,-15.33
8760,73.56,160.25,-24.12,1.82,16.04,-16.79
8770,47.88,143.37,9.25,-0.84,16.22,-17.39
8780,11.44,137.87,61.13,-0.59,15.45,-17.83
8790,-10.38,145.12,121.87,-0.04,14.14,-17.94
8800,-44.44,152.69,161.5,-0.03,13.12,-16.91
8810,-75.94,157.62,182.31,-1.04,11.13,-14.29
8820,-84.37,156.44,195.94,-1.64,10.03,-13.79
8830,-83.31,148.56,206.37,-1.72,8.78,-13.43
8840,-89.37,134.94,212.06,-1.55,6.26,-12.67
8850,-103.25,115.56,207.44,-1.74,5.73,-12.49
8860,-112.37,95.12,196.5,-1.96,5.08,-12.98
8870,-120,82.69,186.62,-1.95,4.3,-13.26
8880,-138.56,76,177.19,-1.91,2.92,-12.27
8890,-155.69,71.81,168.81,-1.39,2.11,-11.29
8900,-162.94,68.81,156.37,-0.7,1.57,-9.94
8910,-159.25,62.13,134.06,-0.02,0.67,-7.69
8920,-146,41.63,104.25,-0.28,0.68,-7.25
8930,-124.75,15.75,77.56,-0.21,0.31,-8.09
8940,-121.19,-10.38,65.5,0.82,-1.32,-9.31
8950,-145.44,-33.56,54.13,1.34,-2.11,-9.99
8960,-175.06,-37,35.88,2.04,-2.77,-9.94
8970,-206.12,-20.56,5.75,2.48,-2.71,-8.34
8980,-225.06,-2.06,-31.75,1.84,-0.68,-3.7
8990,-193.62,24.56,-61.25,0.42,0.4,-3.74
9000,-125.31,59,-69.56,1.17,0.47,-1.94
9010,-83.06,-3.56,-63.19,2,-2.34,-3.37
9020,-109.31,-103,-64.87,2.17,-3.09,-4.94
9030,-161.69,-185.69,-82.06,2.21,-3.02,-6.43
9040,-170,-227.31,-108.31,1.83,-2.38,-7.12
9050,-129.56,-240.62,-133.19,1.99,-0.66,-6.89
9060,-71.12,-240.75,-154.62,1.88,0.49,-7.26
9070,-18.06,-243.44,-167,1.46,1.92,-8
9080,16.12,-270.81,-162.75,1.29,3.54,-10.79
9090,29.31,-333.5,-137.87,2.83,2.29,-15.42
9100,29.25,-372.5,-108.44,2.47,0.33,-21.03
9110,12.69,-345.81,-99.06,3.68,-1.12,-24.65
9120,-20.44,-290,-107.31,5.08,-2.34,-25.74
9130,-37.06,-212.62,-128,5.87,-2.8,-24.33
9140,-31.44,-136.94,-161.44,6.73,-2.08,-21.76
9150,-5.94,-83.44,-206.62,6.08,4.47,-17.11
9160,45.25,-61.69,-238.94,5.63,7.49,-17.07
9170,89.87,-67.62,-236.19,5.63,9.66,-17.98
9180,98.37,-86.94,-204.19,6.36,10.78,-21.28
9190,86.19,-96.25,-157.12,7.04,9.82,-22.74
9200,67.94,-85.37,-113.56,7.43,8.73,-23.63
9210,50.81,-57.56,-82.94,7.82,7.42,-23.95
9220,42.25,-21,-67.56,9.27,5.39,-22.68
9230,50.38,19.25,-75.44,9.61,5.92,-20.98
9240,87.37,60.25,-104.69,9.08,7.77,-19.41
9250,136.62,87.87,-133.37,7.13,12.09,-19.13
9260,165.69,101.69,-141.81,6.42,13.27,-19.49
9270,153.31,109.75,-130.37,6.04,13.52,-19.7
9280,115.06,119.69,-107.12,6.02,13.44,-19.51
9290,76.56,141,-86.94,6.65,13.23,-16.67
9300,57.06,166.87,-78.37,6.59,13.56,-14.77
9310,54.69,185.37,-78.75,6.2,14.1,-13.51
9320,56.63,187.5,-73.94,5.35,15.08,-12.01
9330,59.94,174.37,-58,4.63,14.96,-12.3
9340,63.31,154.56,-29.37,4.36,14.14,-12.97
9350,52.25,127,9.75,5.04,12.43,-14.17
9360,30.44,101.19,38.56,6.39,9.32,-16.96
9370,17.87,94,41.75,6.28,9.03,-18.36
9380,10.25,106.5,29.75,5.56,9.29,-19.45
9390,-4.25,128.31,20.19,4.25,9.77,-19.44
9400,-21.12,153.19,20.62,4.31,9.69,-18.61
9410,-28.56,175,23.81,4.34,9.93,-17.63
9420,-25.87,187.31,24.44,3.36,11.42,-15.54
9430,-18.87,186.94,27.81,2.96,11.87,-15.34
9440,-13.81,173.56,40.81,3.14,11.84,-15.87
9450,-21.37,153.37,58.63,3.19,11.71,-16.81
9460,-37.19,141,71.37,2.74,11.64,-18.31
9470,-47.63,145.94,79,2.31,11.89,-18.22
9480,-54.13,165.94,81.87,1.74,12.44,-16.99
9490,-53.69,188.69,84.06,1.04,12.94,-14.14
9500,-52.5,202.69,83.56,0.45,13.43,-12.79
9510,-50.06,205.25,85.19,-0.12,13.44,-12.18
9520,-51,199.75,93.56,-0.65,13.2,-11.85
9530,-72.44,190.25,109.62,-1.35,11.7,-10.97
9540,-105.44,180.31,125.69,-1.47,10.9,-10.03
9550,-127.25,165.44,139.94,-1.31,10.03,-9.28
9560,-129.31,140.37,152.12,-1.55,8.83,-7.72
9570,-123.87,87.37,168.56,-1.54,7.51,-8.06
9580,-131.62,44.38,180.56,-1.35,5.78,-8.5
9590,-152.31,6.87,183.56,-0.9,3.96,-8.94
9600,-167.19,-16.94,175.12,-0.37,0.87,-9.67
9610,-167.19,-16.94,175.12,-0.31,-0.18,-9.8
9620,-184.81,-35.19,132.94,-0.26,-1.03,-9.92
9630,-199.75,-38.19,106.19,-0.04,-2.18,-8.78
9640,-215,-41.88,78.56,-0.06,-2.52,-8.3
9650,-219.56,-49.38,54.75,0.29,-3.02,-8.22
9660,-218.56,-63.5,35,1.13,-4.35,-8.51
9670,-213.75,-75.94,14.13,1.48,-4.61,-8.25
9680,-199.37,-80.94,-10.69,1.78,-4.63,-7.56
9690,-173.31,-76.62,-40.81,2.42,-4.41,-7.14
9700,-141.06,-60.56,-82.12,1.75,-1.51,-5.63
9710,-141.06,-60.56,-82.12,1.37,0.14,-5.46
9720,-112.62,-60.13,-119.25,1.45,0.87,-6.34
9730,-64.94,-129.25,-124.94,2.3,-0.36,-8.64
9740,-47.63,-165,-109.12,2.66,-0.99,-8.25
9750,-32,-215.75,-91.37,4.11,-2.05,-8.76
9760,-32,-215.75,-91.37,3.76,-3.59,-11.93
9770,-2.12,-233.37,-89.25,5.37,-4.36,-12.88
9780,28.12,-193.87,-137.44,5.44,-4.02,-11.65
9790,49.19,-183.75,-162.31,5.63,-3.86,-10.86
9800,82.75,-194.37,-176.62,6.38,-4.16,-12.68
9810,82.75,-194.37,-176.62,6.42,-4.43,-14.9
9820,106.75,-225.81,-181.69,6.53,-4.95,-18.03
9830,129,-287.56,-180.75,7.27,-5.41,-21.26
9840,152.5,-278.06,-199.25,10.01,-2.57,-24.87
9850,199.31,-239.94,-243.5,10.19,1.47,-25.81
9860,199.31,-239.94,-243.5,9.61,6.43,-27.39
9870,276.12,-191.75,-296.87,9.57,16.26,-29.04
9880,340,-84.69,-314.87,8.87,18.91,-29.35
9890,294.37,-18.62,-270.12,7.56,20.19,-27.65
9900,203.12,56.06,-192.75,6.38,19.54,-23.4
9910,203.12,56.06,-192.75,6.38,19.54,-23.4
9920,108.25,90.19,-84.12,12.82,3.23,-18.53
9930,5.25,17.25,5.12,13.51,0.55,-19.99
9940,9.44,-4.37,-56,11.37,4.18,-25.32
9950,58.81,6.44,-135.81,8.81,8.55,-28.09
9960,58.81,6.44,-135.81,8.81,8.55,-28.09
9970,89.12,37.19,-185.81,3.78,15.58,-29.38
9980,42.38,135.62,-145,3.62,15.07,-27.73
9990,4.25,202.56,-92.94,3.38,13.94,-24.8
10000,-37.94,257.94,-50.5,3.22,13.09,-20.73
