timestamp,gyrox,gyroy,gyroz,accx,accy,accz
10,19.56,3.19,-3.75,0,0,0
20,31.12,5.62,-3,0,0,0
30,47.44,9.25,-3.81,0,0,0
40,60.5,15.31,-5.12,8.68,4.08,-11.81
50,60.44,22.19,-5.12,8.71,3.77,-12.2
60,46.25,24.19,-7,9.29,2.95,-11.79
70,31.19,21.69,-13.75,9.29,3.08,-11.42
80,29.69,24.37,-18.37,8.12,3.42,-11.26
90,34.19,25.94,-20.19,8.83,3.53,-10.06
100,35.56,17.37,-21.75,8.5,3.97,-10.26
110,37.69,12.69,-19.06,8.48,4.25,-10.51
120,35.44,8.88,-14.44,8.6,4.4,-11
130,29.87,5.06,-9.06,8.61,4.28,-11.11
140,28.12,7,-5.06,8.59,4.16,-11.2
150,27.81,10.5,-2.06,8.71,4.02,-11.14
160,27.87,12,-0.88,8.72,3.6,-11.01
170,30.25,13.63,-1.69,8.86,3.43,-10.67
180,38.63,13.88,-3.94,9.03,3.11,-10.39
190,47,13.06,-8.81,8.97,3.29,-10.69
200,51.25,14.31,-13.5,8.8,3.54,-11.1
210,45.13,20.12,-16.5,8.79,3.82,-11.56
220,22.94,26.12,-17.62,8.77,4.2,-11.67
230,-13.31,23.69,-10.63,7.79,6.35,-12.68
240,-48.5,33.44,7.94,8.01,5.4,-12.61
250,-84.69,42.69,12.63,8.56,5.83,-10.63
260,-104.37,28.06,25.37,8.17,7,-8.66
270,-128.81,0.5,47,7.64,6.67,-8.82
280,-165.25,-35.56,64.81,8.17,6.37,-7.59
290,-154.5,-71,77.62,8.06,6.78,-6.06
300,-96.56,-96.75,95.56,8.32,5.61,-7.47
310,-43.94,-113.06,108,8.69,4.5,-9.65
320,-23.5,-109.94,108.94,8.97,3.59,-11.85
330,-24.06,-87.06,99.12,9.42,3.06,-12.88
340,-15.25,-57.31,86.56,9.56,3.31,-12.05
350,6.81,-36.31,77.94,9.77,2.97,-11.61
360,23.81,-20.69,61.81,10.94,1.98,-9.98
370,30.75,-19.5,37.56,10.52,2.85,-9.3
380,44.19,-25.37,20.25,10.18,3.58,-9.79
390,52.44,-25.87,14.63,9.95,4.25,-10.25
400,42.56,-36.75,21,10.73,4.31,-11.06
410,25.25,-54.38,29.12,10.52,4.55,-11.31
420,28,-63,44.13,10.03,4.84,-11.71
430,43.88,-60.56,64.19,9.82,4.29,-13.1
440,49.13,-55.5,84,9.57,3.78,-13.45
450,45.81,-50.75,105.31,9.42,3.19,-13.66
460,46.69,-45.94,126.44,9.71,2.34,-13.73
470,52.25,-31.81,137.81,9.44,-0.06,-14.92
480,43.19,-14.94,140.44,9.53,-1.16,-15.12
490,18.31,-3.12,135.69,9.39,-1.86,-14.95
500,-8.94,1.56,128.62,8.88,-2.9,-13.75
510,-22.37,1.62,115.62,7.92,-3.09,-12.92
520,-4.25,5.5,101.56,8.15,-3.26,-12.35
530,-4.25,5.5,101.56,7.92,-3.9,-12.77
540,22.19,4.5,70.87,7.38,-4.41,-14.03
550,15.63,6.25,56.44,7.05,-4.56,-14.3
560,16,13.19,46.44,6.42,-4.8,-14.29
570,25.69,26.87,38,5.71,-6.01,-14.05
580,25.69,26.87,38,5.17,-6.68,-13.71
590,38,42.38,26.25,4.87,-7.37,-13.44
600,52.13,67.81,-15.63,4.59,-7.92,-12.89
610,56.13,69.37,-46.06,3.22,-7.73,-10.61
620,67.87,59.75,-72.31,2.44,-7.83,-10.01
630,67.87,59.75,-72.31,1.72,-8.04,-10.05
640,75.5,43.5,-94.94,0,-8.31,-9.95
650,96.12,18.94,-135.62,-0.57,-8.57,-10.14
660,117.19,15.69,-163.5,-1.11,-8.4,-10.23
670,133.25,13.19,-196,-2.22,-4.89,-9.55
680,133.25,13.19,-196,-2.72,-1.97,-9.45
690,149.12,9.13,-225.5,-2.38,0.81,-9.27
700,148.81,-11.81,-251.75,-2.12,3.48,-8.95
710,155.37,-49.25,-252.37,-0.62,7.28,-10.36
720,155.94,-72.56,-258,0.07,10.63,-10.36
730,155.94,-72.56,-258,-0.85,13.46,-10.14
740,158.62,-95.19,-240.87,-0.92,16.88,-13.23
750,105.06,-175.62,-124.75,-0.65,17.14,-14.56
760,74.81,-186.06,-54.56,0.52,16.5,-15.53
770,56.63,-172.56,-2.31,2.2,15.27,-16.9
780,56.63,-172.56,-2.31,5.23,14.31,-15.58
790,18.56,-162.94,26.87,6.09,13.82,-15.58
800,-21.75,-177.62,51.44,8.92,13.51,-16.6
810,-22.06,-156.44,40,11.59,15.4,-18.97
820,-30.31,-124.87,35.63,11.91,17.15,-18.89
830,-30.31,-124.87,35.63,11.87,18.81,-18.27
840,-40.25,-92.37,54.56,11.32,19.9,-17.33
850,-75,-88.44,180.12,11.45,18.33,-16.21
860,-95.06,-126.5,266.75,12.82,13.4,-18.91
870,-116.87,-165.81,321.31,14.59,7.97,-21.29
880,-116.87,-165.81,321.31,16.65,0.14,-27.2
890,-112.81,-175.06,337.81,16.25,-2.38,-30.45
900,-95.69,-101,326,15.44,-4.41,-32.53
910,-87.62,-22.94,310.06,13.92,-8.49,-33.97
920,-82.19,67.75,283,12.71,-9.91,-33.37
930,-82.19,67.75,283,12.71,-9.91,-33.37
940,-88,155.87,248,11.15,-10.71,-31.62
950,-91.81,289.44,190.87,6.59,-12.7,-23.07
960,-90.19,324.06,168.12,5.96,-12.99,-20.12
970,-82.69,336.87,141.56,5.44,-12.78,-16.99
980,-82.69,336.87,141.56,5.44,-12.78,-16.99
990,-55.25,330.25,113.19,3.26,-11.5,-12.2
1000,-0.13,277.75,87.56,0.71,-10.98,-11.03
1010,4.5,254.56,97.5,-0.59,-11.46,-10.76
1020,3,245.06,126.37,-4.5,-12.67,-8.81
1030,3,245.06,126.37,-4.5,-12.67,-8.81
1040,15.06,241.56,187.87,-5.87,-13.19,-6.97
1050,39.25,181.94,110.37,-1.03,-18.47,-3.98
1060,52.69,127.31,54.38,-0.39,-18.21,-1.99
1070,133.44,62.88,-11.63,-0.38,-17.78,-2.19
1080,133.44,62.88,-11.63,-0.38,-17.78,-2.19
1090,204.31,4.81,-78.56,-1.41,-16.65,-4.83
1100,223.69,-25.62,-133.06,-4.19,-9.25,-9.72
1110,228.81,-30.06,-170.75,-4.64,-6.91,-9.74
1120,234.75,-26.19,-192.75,-5.43,-2.61,-9.63
1130,243.19,-29.5,-202.12,-5.43,-2.61,-9.63
1140,249.37,-39.94,-199.44,-5.25,-1.14,-10.07
1150,245.87,-55.69,-192.06,-3.84,1.25,-11.09
1160,235.06,-71.12,-190.31,-3.2,4.15,-12.25
1170,218.75,-78.37,-195,-2.59,5.53,-12.23
1180,196.5,-77.94,-195.37,-2.59,5.53,-12.23
1190,170.69,-83.12,-193.94,-1.64,6.89,-11.84
1200,152.5,-106,-202.37,0.38,9.69,-11.88
1210,138.81,-163.62,-218,-4.01,13.19,-11.87
1220,135.31,-217.62,-172.81,0.45,10.34,-20.48
1230,185.94,-233.19,-78.12,0.45,10.34,-20.48
1240,167.19,-229.5,-31.81,3.19,7.95,-25.49
1250,81.31,-168.25,-31.44,4.96,8.98,-24.31
1260,47,-97.81,-45.44,5.45,11.17,-20.97
1270,48.56,-30.69,-47.56,5.78,11.94,-17.51
1280,22.62,7.56,-37.56,5.78,11.94,-17.51
1290,-9.38,9.81,-18.31,6.01,12.41,-13.99
1300,-20,-15.25,8.81,8,10.61,-11.05
1310,-23.37,-50.44,38.56,9.06,9.15,-11.82
1320,-37.44,-85.12,59.75,9.77,8.21,-12.68
1330,-56.88,-108.56,63.81,9.77,8.21,-12.68
1340,-70.62,-121.5,57.38,11.67,8.88,-12.94
1350,-77.37,-132,52.5,12.85,11.65,-13.78
1360,-84.06,-143.75,59.31,14.35,12.76,-15.69
1370,-95.37,-155.37,82.19,15.73,11.9,-16.98
1380,-108.5,-156.62,120.06,15.73,11.9,-16.98
1390,-137.06,-149.81,160.37,18.17,10.15,-17.35
1400,-173.25,-159.19,186.37,22.86,6.52,-18.56
1410,-171.75,-177.87,203.06,23.8,3.97,-22
1420,-152.94,-185.69,218,23.4,1.42,-25.52
1430,-159.19,-177.75,224.75,23.4,1.42,-25.52
1440,-157.81,-152.87,226.81,20.56,-2.29,-29.5
1450,-99.62,-105.62,234.25,16.17,-7.95,-36.61
1460,-40.13,-28.5,242.62,13.09,-14.58,-37.96
1470,-49.5,70,234.69,11.46,-16.16,-35.79
1480,-99.25,171.87,198.81,11.46,-16.16,-35.79
1490,-143,271.5,144.19,9.54,-16.43,-32.35
1500,-165.62,358.25,89.37,2.76,-12.44,-17.46
1510,-171.31,408.12,50.81,1.45,-11.12,-13.62
1520,-172.06,414.12,35,0.79,-10.13,-10.55
1530,-164.06,389.25,37.44,0.79,-10.13,-10.55
1540,-143.06,335.69,49.38,0.68,-9.59,-7.02
1550,-106.19,263,60.06,0.28,-9.69,-6.93
1560,-51.88,175.75,66.94,-0.36,-10.46,-8.83
1570,5.37,111.62,74.75,-0.29,-12.75,-13.93
1580,44.38,84.5,72.75,-0.29,-12.75,-13.93
1590,67.69,92,53.69,-0.18,-13.46,-15.19
1600,94.12,126.5,23.31,-1.99,-11.92,-12.53
1610,122.62,165.19,-14.25,-3.56,-10.61,-10.54
1620,153.94,199.87,-44.94,-4.98,-9.8,-8.85
1630,177.62,225.44,-54.81,-4.98,-9.8,-8.85
1640,201.37,268.44,-42.5,-6.64,-9.22,-7
1650,259,307.44,-7.87,-6.2,-13.13,-0.71
1660,295.06,208.5,12.25,-5.09,-14.55,2.56
1670,271.62,114.06,0.31,-2.25,-14.34,4.71
1680,278.87,-15.69,-52.25,-2.25,-14.34,4.71
1690,332.87,-151.56,-132,-2.38,-11.49,0.27
1700,376.25,-263.62,-206.44,-2.05,-5.44,-13.22
1710,345.62,-357.31,-270.12,-5.11,3.76,-18.24
1720,280.06,-486.81,-312.5,-8.51,5.42,-23.83
1730,290.31,-389.31,-306.56,-8.51,5.42,-23.83
1740,282.06,-284.12,-252.25,-6.07,6.86,-29.84
1750,210.25,-169.62,-203.06,-1.81,8.06,-32.73
1760,113.75,-59.38,-174.94,-0.3,9.14,-28.95
1770,63,28.94,-160.94,0.88,9.96,-23.16
1780,59.19,66.19,-155.5,0.79,11.26,-12.98
1790,78.81,55.88,-133.12,1.46,12.78,-8.89
1800,125.94,12.38,-84.75,2.5,13.02,-7.22
1810,154.62,-73.25,-39.19,2.45,13.11,-7.5
1820,154.94,-164.5,9.81,3.84,11.2,-14.52
1830,121,-225.19,45.06,5.64,9.28,-18.08
1840,97.06,-229.44,49.75,7.24,7.4,-21.45
1850,71.44,-186.44,19.75,10.47,6.58,-26.14
1860,29.19,-121.75,-30.5,10.19,9.72,-24.01
1870,15.25,-65.75,-58.88,9.84,13.68,-20.21
1880,23.06,-40.5,-49.06,9.49,16.78,-16.97
1890,15.75,-50.94,-8.06,10.43,18.52,-13.78
1900,-16.75,-91.81,43.81,11.81,18.1,-13.01
1910,-42.44,-146.44,87.31,12.77,17.47,-13.81
1920,-55.88,-177.5,120.62,15.26,15.31,-20.54
1930,-91.94,-172.62,142.94,16.78,14.74,-21.71
1940,-133.25,-138.31,159.31,18.2,14.31,-20.77
1950,-162.81,-108.12,175.06,19.27,13.72,-19.02
1960,-174.06,-104.5,190.19,19.03,12.85,-17.08
1970,-160.25,-114.94,213.12,17.27,12.15,-19.2
1980,-148.69,-122.75,249.56,16.01,9.93,-22.73
1990,-151,-115.12,290.25,12.58,3.27,-27.67
2000,-137.5,-74.94,336.62,11.33,-1.43,-28.91
2010,-139.75,-21.56,375.19,10.93,-6.75,-29.74
2020,-175.62,28.75,384.75,11.08,-14.08,-27.23
2030,-196.12,79.19,360.87,10.6,-15.67,-26.1
2040,-196.06,131.06,312.12,9.72,-16.53,-25.11
2050,-183.62,187.56,252.56,8.32,-16.86,-23.9
2060,-158.19,247.19,195.19,3.95,-16.4,-19.21
2070,-137.69,283.62,156.12,1.97,-15.8,-16.47
2080,-122.75,292.44,138,0.52,-15.21,-13.85
2090,-95.5,281.5,143.25,-2.64,-14.41,-10.56
2100,-54.31,262.31,168.56,-3.22,-14.31,-10.12
2110,-18.12,239.12,185.19,0.65,-16.25,-9.7
2120,-1.69,200.81,137.19,-0.69,-17.88,-10.35
2130,9.19,170.25,97.44,-0.94,-18.27,-9.04
2140,50.56,152.87,54.88,-0.68,-18.18,-8.76
2150,92.19,140.69,6,-0.29,-17.77,-9.46
2160,99.75,122.56,-42.31,-0.92,-13.63,-8.68
2170,107.37,97.5,-78.44,-0.95,-11.39,-8.97
2180,117.5,73.31,-104.44,-1.19,-9.24,-9.72
2190,123.56,59,-121.81,-1.58,-7.25,-10.32
2200,127.56,53.44,-128.62,-2,-4.39,-10.26
2210,124.87,44.94,-127.06,-1.84,-3.68,-9.51
2220,121.81,24.19,-122.56,-1.7,-3.12,-8.74
2230,131.44,-8.31,-118.12,-1.49,-2.32,-8.94
2240,148.31,-43.31,-116.5,-1.55,-1.95,-9.8
2250,164.06,-71.69,-116.75,-1.57,-1.76,-11.09
2260,170.62,-88.06,-118.75,-1.57,-0.7,-13.23
2270,170.44,-93.94,-120.81,-1.24,-0.22,-13.84
2280,169.62,-91.06,-123.19,-0.93,0.2,-14.4
2290,165.31,-80.5,-126.94,-0.91,0.76,-14.32
2300,164.5,-72.12,-131.37,0,2.81,-11.78
2310,172.5,-76,-135.81,-0.03,3.99,-10.84
2320,173.62,-92.44,-133.81,-0.4,5.03,-10.85
2330,153.69,-121.81,-121.06,-0.22,6.99,-11.64
2340,123.12,-156.62,-100.19,1.04,7.25,-12.37
2350,92.37,-187.81,-86.31,1.82,7.39,-13.71
2360,72,-179.37,-80.44,2.32,7.47,-15.74
2370,51.88,-146.62,-80.44,3.75,8.78,-16.42
2380,38.13,-106.06,-78.5,4.72,9.59,-14.06
2390,44.38,-80.31,-79,5.06,9.58,-11.54
2400,62.5,-53.44,-75.75,3.59,7.99,-9.61
2410,66.12,-17.62,-63,1.74,6.67,-8.92
2420,43.69,-79.62,-10.63,2.84,5.19,-4.31
2430,40.63,-189.87,16.44,6.71,1.91,-6.45
2440,8.31,-295.44,-23.06,9.8,4.02,-9.96
2450,16.5,-414.87,-72.94,10.52,8.88,-12.26
2460,77.62,-400.12,-114.12,11.84,11.54,-20.7
2470,71.5,-335.25,-132.25,9.01,18.56,-29.36
2480,29.62,-253.62,-97.75,7.69,21.19,-29.5
2490,-4.81,-164.87,-12.19,7.15,22.12,-27.84
2500,-41.5,-103.25,101.94,7.55,20.36,-25.69
2510,-90.5,-83.87,194.19,10.82,10.04,-20.95
2520,-119.25,-89.5,240.69,13.01,4.99,-21.08
2530,-136.37,-104.75,237.06,14.03,2.38,-21.18
2540,-120.44,-107.12,209.87,13.7,1.12,-23.4
2550,-91.81,-94.94,184.56,12.77,1.18,-25.58
2560,-88.37,-70.69,172.37,11.75,1.33,-27.29
2570,-110.5,-37.44,177.81,9.79,0.03,-28.6
2580,-127.37,4.56,196,9.61,-1.32,-29.04
2590,-126.5,62.75,210.12,9.95,-3.16,-29.43
2600,-132.62,129.31,205.75,10.32,-4.57,-28.64
2610,-139.25,191.44,184.37,8.76,-4.93,-22.37
2620,-128.31,233.06,162.37,7.53,-4.25,-19.35
2630,-113.31,247.94,153.44,6.45,-3.99,-17.31
2640,-106.06,249.62,154.81,4.63,-5.35,-15.12
2650,-103.81,253.31,156.62,4.11,-6.06,-14.22
2660,-105.62,259.62,155.62,3.68,-6.71,-13.33
2670,-116.5,263.75,151.81,3.25,-7.31,-12.22
2680,-136.31,258,147.62,2.95,-8.47,-8.81
2690,-146.69,238.25,140.94,3.36,-8.64,-7.25
2700,-137.31,205.94,132.94,3.39,-8.53,-6.28
2710,-100.12,159.19,122.87,4.3,-9.08,-5.21
2720,-47.38,93.56,108.31,4.72,-9.24,-6.32
2730,-2.12,14.94,92.44,4.63,-8.98,-8.45
2740,41.19,-41.06,76.69,4.31,-8.73,-12.18
2750,72.31,-57.13,64.56,3.32,-8.62,-19.35
2760,87.87,-40.88,56,2.54,-8.64,-20.97
2770,113.56,3.25,50.13,1.61,-9.24,-21.99
2780,120.5,58.25,41.06,1.49,-11.68,-23.15
2790,90.5,114,18.19,1.52,-12.46,-21.05
2800,64.37,161.25,-18.44,1.33,-12.3,-17.54
2810,64.87,185.62,-60.44,1.12,-11.63,-14.09
2820,81.06,182.19,-102.75,1.01,-9.29,-9.25
2830,95.87,156.94,-142.81,0.74,-7.66,-8.16
2840,104.19,119.25,-173.62,0.4,-5.82,-7.5
2850,111.69,76.44,-191.75,-0.39,-2.11,-7.74
2860,121.19,43.25,-197.81,-0.74,-0.68,-7.99
2870,136.5,19.56,-192.5,-1.43,0.55,-8.24
2880,151.81,2.19,-174.06,-2.59,1.37,-9.26
2890,150.06,-16.87,-149.31,-2.95,0.91,-9.16
2900,141.37,-44.88,-125.12,-2.94,-0.04,-9.01
2910,147.62,-77.75,-112.37,-2.78,-1.34,-9.83
2920,163.37,-93.56,-123.12,-1.03,-2.8,-14.07
2930,164.06,-87.25,-163.12,0.45,-1.28,-14.53
2940,160.12,-81.81,-225.56,2.15,1.88,-14.17
2950,164.37,-83.06,-292,2.56,9.35,-15.74
2960,154.31,-81.62,-346.5,-1.86,13.72,-17.6
2970,107.44,-67.12,-333.31,-1.9,17.23,-17.46
2980,52.25,-67.37,-267.94,-2.37,20.23,-16.46
2990,37.69,-67.75,-168.87,-1.22,21.33,-15.46
3000,41.81,-65.56,-63.31,1.29,19.1,-16.19
3010,19.94,-66.12,7.75,4.27,16.17,-16.42
3020,-6.5,-63.81,28.81,6.97,14.04,-12.92
3030,0.06,-58.75,26.94,7.03,14.3,-11.46
3040,18.06,-62.06,28.25,7.27,14.74,-10.21
3050,29.12,-79.12,36.88,7.54,15.04,-9.84
3060,19.75,-93.44,54,7.62,14.44,-10.64
3070,-8.81,-100.94,77.06,7.9,13.77,-9.85
3080,-35.44,-116,100.94,8.77,12.94,-9.01
3090,-50.38,-142.81,118.94,10.25,11.58,-9.44
3100,-54.13,-167.25,132.44,10.79,11.28,-10.59
3110,-52.69,-180.37,143.37,11.3,10.84,-12.31
3120,-54.38,-181.12,152.44,12.24,9.93,-15.39
3130,-61.63,-171.75,162.31,12.49,9.24,-16.38
3140,-67.19,-156.44,169.87,13.09,8.54,-17.03
3150,-66.94,-143.31,175.25,12.96,7.97,-17.68
3160,-60.56,-128.25,183.81,12.72,5.57,-19.82
3170,-57.31,-110.94,197.62,12.11,3.85,-21.29
3180,-56.63,-87.12,215.44,12.04,1.5,-22.85
3190,-54.63,-46.75,220.87,14.04,-3.7,-25.09
3200,-63.69,-0.06,199.06,14.69,-5.14,-25.23
3210,-81.94,43.44,156.19,14.62,-5.42,-24.78
3220,-95,76.62,112.25,13.79,-4.73,-23.9
3230,-94.5,101.62,85.62,11.41,-3.35,-23.46
3240,-94.31,125.44,78.69,10.7,-3.23,-23.31
3250,-97.56,152.5,80.19,10.4,-3.43,-22.5
3260,-98.19,179.06,78.87,9.54,-3.44,-19.38
3270,-97.94,195.25,75,9.01,-2.94,-17.62
3280,-95.5,198.5,73.75,8.35,-2.46,-16.07
3290,-85.87,194.69,77.25,7.77,-2.17,-14.83
3300,-73.94,185.37,84.19,6.71,-2.55,-13.52
3310,-62.13,173.87,90.06,6.62,-2.75,-13.2
3320,-49.69,163.56,90.12,6.22,-2.81,-13.05
3330,-37.25,156,89.25,5.41,-2.91,-12.43
3340,-26.75,152.06,88.69,4.99,-2.92,-11.83
3350,-14.81,151.87,89.69,4.46,-2.93,-11.06
3360,-3.25,151.06,94,3.77,-3,-10.15
3370,3.44,141.19,104.75,1.96,-3.96,-8.54
3380,4.75,117.87,122.37,1.46,-5.21,-8.24
3390,6.62,89,137.62,1.3,-6.82,-8.31
3400,7.19,58.5,142.5,1.26,-9.83,-9.2
3410,10.88,33.75,134.69,1.44,-11.01,-9.72
3420,20.69,17.81,114.69,1.42,-11.83,-10.78
3430,22.12,10.5,87.19,1.6,-12.33,-10.84
3440,40.38,9.44,50.75,1.64,-12.56,-11.12
3450,63.69,2.06,6.87,1.28,-12.62,-11.69
3460,78.94,-7.62,-34.56,0.86,-12.42,-12.54
3470,88.5,-11.25,-73.31,0.6,-11.22,-14.1
3480,89.75,-8.25,-111.5,0.57,-10.03,-14.24
3490,88.81,-4,-146.44,0.38,-8.28,-13.8
3500,92.19,-5.25,-171.81,-0.05,-4.55,-13.2
3510,96.12,-12.63,-186.12,0.01,-3.09,-13.18
3520,95.19,-23.19,-195.25,0.08,-1.58,-13.18
3530,91.25,-36.19,-200.81,-0.04,0.01,-13.12
3540,89.06,-48.38,-200.5,0.23,2.87,-13.5
3550,82.12,-59.19,-197,0.89,4.14,-13.38
3560,81.87,-64.62,-194.75,0.93,5.45,-13.88
3570,87.81,-51.75,-192.56,1.71,7.64,-14.7
3580,74.19,-32.81,-190.19,2.55,8.68,-14.01
3590,74.19,-32.81,-190.19,3.7,10.33,-11.5
3600,82.87,8.5,-210.25,4.18,11.78,-9.75
3610,127.94,51.81,-218.06,2.84,13.48,-10.81
3620,104.69,77.81,-206.75,2.67,14.36,-10.46
3630,22.37,88.5,-187.25,2.55,15.5,-9.4
3640,-54.75,99.19,-158.31,1.86,17.33,-4.04
3650,-88.06,20.75,-108.31,2.65,17.84,-2.5
3660,-53,-28.37,-50.56,2.93,17.64,-2
3670,21.25,-60.5,4.56,5.33,13.42,-6.65
3680,54.44,-69,35,5.58,11.82,-6.92
3690,54.44,-69,35,5.65,10.69,-5.3
3700,10.94,-74.81,50.94,6.46,9.47,-3.54
3710,-19.69,-112.75,47.38,8.32,7.94,-1.09
3720,-33.88,-174.75,36.5,9.12,7.91,-1.75
3730,-27.75,-242.25,25.31,9.53,8.18,-4.74
3740,-27.25,-290.12,14.63,12.66,9.37,-11.7
3750,-42.5,-316.81,-2.87,13.55,10.58,-12.45
3760,-48.19,-358.12,-20.25,14.48,12.42,-12.84
3770,-12.19,-316,-35.19,15.38,14.13,-16.78
3780,15.69,-223.06,-32.94,13.97,17.03,-20.45
3790,15.69,-223.06,-32.94,13.87,17.2,-21.28
3800,-2.12,-192.12,5.75,13.95,16.27,-21.87
3810,-27.75,-181.31,121.69,15.16,10.83,-25.51
3820,-15.69,-159.12,161.25,15.8,7.58,-27.91
3830,-41.75,-123.94,175.81,16.64,4.87,-29.39
3840,-41.75,-123.94,175.81,16.5,3.83,-29.22
3850,-86.87,-74.69,163.12,14.75,4.62,-25.81
3860,-75,58.31,137.31,13.47,5.34,-22.8
3870,-58.38,85.19,148.94,12.29,5.46,-20.18
3880,-47.5,82.62,170.31,9.92,3.44,-19.13
3890,-47.5,82.62,170.31,9.04,1.68,-20.28
3900,-52.88,68.94,193.5,8.43,-0.04,-21.07
3910,-99.06,72.75,212.87,8.12,-1.33,-20.89
3920,-111.06,89.56,201.69,6.71,-2.28,-18.23
3930,-109.56,105.06,186.06,5.59,-1.77,-16.5
3940,-109.56,105.06,186.06,4.37,-1.22,-15.15
3950,-99.5,110.94,178,1.99,-0.9,-13.73
3960,-84.69,90.75,192.19,0.84,-0.98,-13.64
3970,-85.75,72.75,209.37,-0.3,-1.13,-13.62
3980,-86.94,50.88,234,-2.33,-2.76,-14.43
3990,-86.94,50.88,234,-2.81,-3.76,-15.03
4000,-81,34.81,260.37,-3.58,-4.95,-15.3
4010,-62.38,20.12,299.81,-2.43,-6.65,-15.03
4020,-49.44,19.81,294.44,-2.08,-9.41,-14.56
4030,-28,24.62,272.25,-2.04,-10.34,-14.29
4040,-28,24.62,272.25,-2.04,-10.34,-14.29
4050,3.44,27.31,243.19,-2.78,-13.13,-14.93
4060,79.37,55.5,175.44,-2.97,-13.39,-14.67
4070,107.12,80.5,140,-2.66,-13.13,-13.7
4080,154.81,108.75,78.37,2.9,-14.47,-12.62
4090,154.81,108.75,78.37,2.9,-14.47,-12.62
4100,175.12,120.19,-49.81,0.03,-11.98,-10.5
4110,183,100.81,-214.44,-0.48,-5.8,-6.62
4120,216.94,78.87,-261.75,-0.46,-0.82,-6.79
4130,228.75,50.44,-290.81,-0.83,1.54,-7.52
4140,228.75,50.44,-290.81,-0.83,1.54,-7.52
4150,225.44,19.31,-298.81,-1.39,3.66,-8.84
4160,174.06,-18.75,-257.87,-1.49,7.33,-11.34
4170,142.06,-16.06,-228.69,-0.5,7.38,-11.26
4180,112.62,-14.19,-212.19,0.44,7.46,-10.6
4190,112.62,-14.19,-212.19,0.44,7.46,-10.6
4200,105.37,-13.75,-208.5,0.91,8.03,-9.97
4210,120.19,-4.75,-234.31,2.88,8.7,-10.25
4220,115.12,1.25,-268.25,3.36,10.85,-11.21
4230,104.94,14.94,-306.31,3.64,11.52,-11.97
4240,104.94,14.94,-306.31,3.64,11.52,-11.97
4250,80.06,39,-344.44,1.88,12.5,-12.06
4260,30.44,20.25,-314.44,2.46,17.52,-9.2
4270,-10.75,-5.81,-259.06,3.36,18.4,-8.54
4280,-21.19,-21.37,-217.94,4.07,18.92,-8.61
4290,-7.94,-43.13,-169.94,4.07,18.92,-8.61
4300,10.38,-66.19,-118.5,5.96,18.51,-9.67
4310,21.56,-85.62,-72.69,9.02,17.26,-10.97
4320,14.88,-100.62,-47.19,9.04,17.25,-11.12
4330,-9.94,-114.69,-29.12,10.38,15.52,-11.05
4340,-37.75,-124.75,-3.75,10.38,15.52,-11.05
4350,-70.31,-130.81,22,11.28,14.07,-10.78
4360,-110.12,-142.44,41.19,14.57,11.24,-9.54
4370,-138.75,-167.37,50,14.8,11.13,-10.36
4380,-139.5,-203.69,52.31,15.2,11.07,-11.16
4390,-122.94,-255.37,57.06,15.2,11.07,-11.16
4400,-109.12,-319.5,62.31,16.21,11.28,-12.79
4410,-77.75,-264.25,52.5,17.12,13.43,-22.47
4420,-55.06,-187.69,50.88,16.53,13.63,-23.31
4430,-76.81,-129.75,71.81,14.42,13.37,-20.53
4440,-125.94,-91.81,105.94,14.42,13.37,-20.53
4450,-134.69,-83.06,154.12,13.62,11.61,-20.24
4460,-86,-84.12,207.94,12.37,2.92,-26.15
4470,-35.56,-74.69,248.31,12.04,0.68,-27.2
4480,-11.38,-38.44,264.37,11.41,-1.02,-27.72
4490,-7.06,18.94,255.62,11.41,-1.02,-27.72
4500,-18.06,91.94,229.06,10.52,-2.38,-27.62
4510,-48.44,162.75,196.75,6.57,-2.74,-18.65
4520,-69.81,219.87,169.19,6.12,-2.66,-15.17
4530,-57.69,253.69,152.69,5.21,-2.8,-10.53
4540,-36.13,259.69,140.5,5.21,-2.8,-10.53
4550,-23.62,241.94,129.06,5,-2.58,-8.86
4560,-11.81,208.94,121.81,4.53,-2.63,-7.54
4570,2.75,168.31,118.19,3.79,-3.53,-8.07
4580,16.5,130.25,116.5,3.61,-4.22,-8.35
4590,24.31,99.87,115,3.61,-4.22,-8.35
4600,28.69,73,112.94,3.62,-4.78,-8.88
4610,39.19,52.31,109.69,2.76,-7.14,-11.36
4620,55.5,44.25,105.69,3,-8.03,-11.52
4630,64.12,42.44,93.87,3.18,-8.62,-11.64
4640,72.31,40.63,72.19,3.18,-8.62,-11.64
4650,86.87,41.25,41.44,2.96,-8.83,-12.1
4660,102.69,45.69,5.87,2.14,-7.89,-12.01
4670,113.06,50.38,-28.56,1.35,-6.81,-11.35
4680,121.5,48.88,-55.75,0.97,-6.48,-11.39
4690,135.87,43.25,-76.75,0.97,-6.48,-11.39
4700,155.12,40.38,-96.69,0.79,-6.12,-11.19
4710,176.19,34.06,-116.87,0.28,-4.49,-12.19
4720,200.62,28.75,-139.31,-0.35,-3.47,-13.01
4730,229.25,30.5,-162.94,-0.81,-2.33,-13.59
4740,253.75,46.75,-181.69,-0.81,-2.33,-13.59
4750,251.5,60,-191.19,-1,1.13,-13.54
4760,240.25,69.81,-195.5,-0.91,4.31,-12.37
4770,239.19,82.06,-197.25,-0.91,7.02,-11.54
4780,237.44,91.31,-194.75,-0.82,8.12,-10.55
4790,217.31,92.5,-188.31,-0.82,8.12,-10.55
4800,187.19,82.06,-176.87,0.12,9.12,-9.46
4810,162.62,52.88,-163.19,2.25,11.51,-8.84
4820,148.5,2.44,-146.12,3.24,11.41,-11.36
4830,166.69,-49.75,-132.56,4.13,11.67,-14.03
4840,174.37,-74.87,-128,4.13,11.67,-14.03
4850,131.19,-92.37,-127.81,4.9,14.68,-14.32
4860,91.06,-102.62,-117.06,4.63,16.41,-13.86
4870,88.19,-100.62,-90.25,4.95,16.34,-13.48
4880,90,-98.25,-47.56,7.59,14.21,-11.58
4890,75.44,-109.56,1.5,7.59,14.21,-11.58
4900,68.56,-136.56,36.5,8.85,13.14,-12.51
4910,82.19,-152,49.13,10.31,11.97,-15.38
4920,53.38,-155.94,43.88,11.07,14.11,-14.53
4930,37.94,-161.5,45.69,11.45,13.67,-16.42
4940,22.75,-146.37,55.63,12.99,12.61,-17.17
4950,-20,-131.62,57.75,13.16,13.14,-16.01
4960,-38.63,-113.75,69.75,14.12,14.05,-14.86
4970,-64.56,-103.62,93.56,14.57,14.1,-13.81
4980,-102.56,-106.81,122.25,15.57,13.63,-12.6
4990,-126.06,-119.19,146.44,17.47,12.35,-11.83
5000,-126.19,-130.5,161.37,17.63,11.86,-12.97
5010,-129,-141,172.06,16.98,11.65,-14.1
5020,-140.44,-154.44,190.69,15.95,11.04,-15.67
5030,-147.37,-160.62,217.37,15.47,6.71,-19.42
5040,-154.56,-147.44,238.44,14.92,3.97,-21.43
5050,-171.31,-118.75,251,14.63,1.33,-22.37
5060,-176.37,-77.56,252.25,13.87,-3.52,-22.88
5070,-165.87,-25.31,242.25,13.64,-5.39,-22.68
5080,-158.94,29.94,221.31,13.5,-6.86,-21.7
5090,-157.87,77.44,189.62,12.75,-8.08,-17.64
5100,-149.75,109.81,152.75,12.46,-7.62,-15.81
5110,-136,122.87,117,11.85,-6.57,-14.64
5120,-127.56,121.75,91.06,10.56,-5.04,-13.79
5130,-123.62,114.19,86.25,7.63,-2.7,-12.56
5140,-120.87,100,103.87,5.45,-1.93,-12.41
5150,-105.12,82.69,146.31,4.05,-2.94,-13.36
5160,-80.69,73.44,195.69,3.61,-8.39,-14.92
5170,-55.06,72.19,225.19,3.62,-11.09,-15.86
5180,-30,81.94,230.44,4.22,-13.46,-16.43
5190,-14.19,101.94,206.37,4.87,-14.98,-16.52
5200,4.62,135.81,162.44,5,-14.38,-15.06
5210,29.19,175.87,102.87,5.71,-13.17,-13.62
5220,31.69,191.56,24.87,4.41,-11.41,-11.31
5230,28.62,179.87,-26.44,2.42,-6.91,-6.79
5240,51,149.06,-41.75,2.21,-5.74,-6.52
5250,71.06,101.31,-38.69,2.29,-5.17,-6.57
5260,85.69,50.38,-29.25,2.34,-5.18,-7.18
5270,102.19,9.38,-22.62,2.05,-6.05,-9.5
5280,116.56,-21.62,-21.25,1.76,-6.98,-10.76
5290,123.81,-41,-27.87,1.62,-8.29,-12.07
5300,113.87,-44.81,-50,0.63,-10.06,-13.78
5310,81.56,-44.19,-83.31,0.46,-10.19,-13.61
5320,47.38,-42.69,-125.69,0.11,-9.51,-13.35
5330,27.69,-42,-170.06,-1.03,-5.55,-10.94
5340,31.56,-50.13,-205.44,-0.89,-3.05,-9.33
5350,63.31,-79.69,-231.87,-1.14,0.05,-8.46
5360,113.37,-134.25,-240.37,-2.43,3.45,-9.25
5370,170.25,-196.25,-212.62,-5,7.07,-17.39
5380,204.87,-222.12,-157.37,-3.92,5.78,-21.28
5390,205.5,-198.19,-104.75,-2,3.07,-24.79
5400,190.37,-123.25,-96.81,-0.17,1.75,-25.75
5410,153.69,-25.69,-122.19,0.34,3.05,-22
5420,102.75,48.25,-157,1.03,5.19,-16.43
5430,84.19,84.44,-191.31,0.97,7.47,-11.84
5440,91,94.37,-217.12,3.33,9.78,-9.67
5450,107,145.5,-267.69,-0.38,10.7,-8.43
5460,91.12,86.31,-257.31,-0.66,13.44,-6.48
5470,51.19,-0.37,-189.94,0.83,16.51,-5.28
5480,25.62,-59.13,-139.75,1.48,16.92,-5.47
5490,48.13,-99.62,-86.56,3.19,15.84,-6.97
5500,69.12,-130.31,-51.56,4.98,14.23,-9.2
5510,59.69,-154.12,-40.88,6.44,13.24,-12.14
5520,44.19,-163.5,-36.5,7.05,12.56,-13.41
5530,21.06,-160.62,-34.69,8.12,11.7,-13.66
5540,0.88,-149.31,-44.44,8.6,12.13,-14.21
5550,-19.62,-120.94,-58.75,8.02,13.92,-12.75
5560,-63.19,-110,-54.06,8.04,15.2,-9.73
5570,-89.94,-148,-33.88,10.49,14.25,-9.6
5580,-68.75,-190.69,-19.44,9.42,14.58,-13.8
5590,-70.19,-203.31,-9.81,9.44,14.12,-15.67
5600,-108.56,-215.19,6.56,10.14,14.41,-14.33
5610,-105.44,-217.31,25.12,10.71,14.14,-15.91
5620,-93.12,-234.44,49.69,11.56,13.77,-17.71
5630,-83.44,-198.62,65.19,10.92,13.04,-19.44
5640,-81.5,-164.44,78.12,11.73,11.82,-21.57
5650,-101.69,-143,93.25,11.62,11.35,-22.03
5660,-116.37,-129.56,112,11.65,10.3,-23.33
5670,-126,-106.62,128.37,11.91,9,-24.67
5680,-137.37,-70.25,134.62,12.33,6.94,-25.39
5690,-142,-25,131,12.01,6.76,-25.06
5700,-143.94,20,126.56,11.15,7.01,-24.12
5710,-142.69,55.81,132.06,9.07,6.45,-21.71
5720,-142.62,77.81,148.94,8.51,5.3,-21.15
5730,-148.19,89.06,167.44,8.35,4.03,-20.49
5740,-146.69,99.62,177.75,8.12,3,-19.85
5750,-137.87,113.06,180.12,6.85,1.18,-18.95
5760,-131.56,129.5,177.87,6.29,0.68,-17.98
5770,-126.56,147.31,172.87,5.69,0.45,-16.6
5780,-122.44,154.75,170.69,3.54,0.26,-13.43
5790,-107.81,143.37,178.69,2.19,-0.22,-13.21
5800,-83.87,124.62,203.19,1.29,-1.59,-13.64
5810,-68.31,100.69,233.94,0.7,-3.47,-13.96
5820,-49.06,76.62,255.62,0.35,-8.03,-15.06
5830,-19,56.63,260.5,0.73,-10.13,-15.99
5840,19.19,50.06,241.62,1.54,-12.05,-17.16
5850,54.38,63.75,193.06,2.68,-13.82,-18.26
5860,81.19,91.62,121,2.96,-13.38,-17.56
5870,105.56,122.06,38.69,2.46,-11.6,-16.07
5880,127.87,140.75,-30.87,0.68,-5.62,-12.86
5890,147.81,140.12,-72.31,-0.28,-3.12,-12.32
5900,162.5,135.81,-86.94,-0.64,-1.63,-11.76
5910,164.81,128.56,-84.69,-0.83,-0.88,-10.94
5920,159.31,114.62,-76.87,-1.21,-0.49,-9.06
5930,151.69,86.19,-68.81,-0.45,-1.07,-8.49
5940,147.44,42.13,-72.5,-0.11,-1.34,-8.74
5950,154.31,1.75,-89.94,0.26,-0.85,-12.82
5960,155.44,-16.19,-115.56,0.2,0.15,-14.53
5970,145.56,-10.88,-142,-0.08,1.74,-15.31
5980,139.06,12.06,-160.12,-0.34,3.56,-15.1
5990,131.5,34,-164.44,-1.27,7.08,-13.09
6000,120.81,43.69,-150.81,-2.1,7.9,-12.09
6010,107.06,41.25,-122.87,-1.8,8.07,-10.88
6020,99.06,29.56,-95.31,0.09,6.41,-9.29
6030,101.56,-2.37,-84.31,1.02,5.92,-9.88
6040,97.69,-28.44,-90.37,1.95,5.9,-10.28
6050,94.44,-43.5,-111,2.38,6.88,-10.61
6060,103,-31.5,-134.56,2.4,10.46,-11.54
6070,90.69,-6.12,-149.37,2.78,11.93,-10.87
6080,78.56,28.19,-151.56,0.31,14.19,-7.56
6090,107.87,3.62,-107.69,1.6,14.56,-7.8
6100,117.81,-19.81,-66.37,2.11,14.14,-7.89
6110,85.31,-56.13,-24.62,3.09,13.25,-7.26
6120,61.75,-100.44,9.19,5.16,10.11,-7.5
6130,62.56,-125.5,25.31,7.13,7.41,-8.61
6140,77.31,-140.94,11.56,8.44,6.26,-10.08
6150,94.25,-121.5,-33.44,8.88,7.6,-10.75
6160,85.12,-111.06,-75.19,7.78,15.6,-10.81
6170,55.44,-115.81,-82.5,7.93,17.8,-10.93
6180,12.88,-133.81,-58.63,8.1,19.33,-10.72
6190,0.81,-147.12,-14.31,9.59,18.6,-13.28
6200,-10.69,-150.31,38.06,11.15,16.85,-13.58
6210,-43.38,-153.69,76.5,12.44,15.36,-12.88
6220,-60.44,-161.5,96.87,13.12,14.37,-12.37
6230,-54.25,-177.81,106.87,14.33,13.35,-13.01
6240,-40.13,-218.69,114.81,13.87,13.41,-14.68
6250,-32.88,-267,127.44,13.77,13.31,-19.09
6260,-17.37,-232.19,142.31,12.64,11.05,-26.26
6270,1.81,-192.06,168.31,12.72,8.61,-29.78
6280,-18.81,-139.37,190.5,12.8,6.52,-31.22
6290,-59.94,-75.81,200.44,12.7,4.91,-30.91
6300,-81.87,-7.44,201.94,11.93,1.86,-28.23
6310,-94.69,51.25,198.69,11.02,1,-25.65
6320,-98.25,90.12,195.37,10.14,0.33,-23.23
6330,-89.31,109.19,194.87,8.62,-1.05,-20.04
6340,-73.69,117.31,195.87,7.54,-1.46,-19.05
6350,-56.13,121,200.5,6.66,-2.06,-18.28
6360,-44,118.12,210.19,5.93,-2.86,-17.56
6370,-29.81,114.56,218.56,4.72,-5.19,-16.63
6380,-13.44,116.37,219.81,4.14,-6.08,-16.08
6390,0.62,120.69,213.56,3.47,-6.84,-15.37
6400,10.69,123.31,205,1.17,-8.84,-14.68
6410,8.5,121.19,199.94,1.06,-10.45,-14.85
6420,-10.81,115.44,189.44,1.15,-11.82,-14.76
6430,-24.19,113.5,165.56,1.9,-13.39,-14.37
6440,-17,123.87,125.5,2.2,-13.26,-13.64
6450,11.06,145.37,73.06,1.96,-12.56,-12.86
6460,37.06,159.62,22.87,1.31,-11.44,-12.09
6470,42.63,162.5,-11.75,-0.33,-9.67,-9.93
6480,34.44,161.19,-29.31,-0.58,-9.51,-8.86
6490,20.12,157.44,-38.94,-0.17,-9.4,-7.53
6500,22.94,143.06,-52,2.32,-8.85,-6.42
6510,49.25,95,-83.81,1.26,-7.04,-6.92
6520,76.56,25,-109.69,0.08,-4.83,-8.34
6530,117.69,-22.12,-106.62,-0.59,-3.87,-10.49
6540,146.62,-34.69,-94.81,-0.74,-4.82,-15.32
6550,149.12,9.5,-97.81,-0.72,-5.54,-15.19
6560,124.94,42,-107.56,-0.37,-5.92,-13.04
6570,116.62,60.88,-129.81,-0.99,-4.54,-9.4
6580,110.94,55.06,-154.25,-1.51,-3.18,-8.24
6590,99.62,36.94,-170.19,-1.69,-1.88,-7.98
6600,93.12,10.38,-177.62,-1.45,-0.56,-8.02
6610,89.56,-34.06,-180.25,-1.69,3.06,-9.51
6620,92.25,-59.69,-177,-2.07,4.44,-10.63
6630,95.12,-80.56,-163.19,-2.17,5.15,-11.77
6640,97.69,-93.19,-146.81,-1.2,5.13,-13.62
6650,98.12,-100.25,-138.12,-0.96,5.25,-14.4
6660,99.94,-74.44,-137.25,-0.67,5.54,-14.63
6670,101.75,-48.88,-142.5,-0.4,7.21,-14.09
6680,86.56,-36.19,-147.75,-0.02,8.03,-13.13
6690,67,-33.5,-150.87,0.84,9,-12.46
6700,56.5,-47.06,-157.06,1.81,10.31,-11.69
6710,71.62,-73.12,-166.69,3.4,12.3,-14.12
6720,88,-82.19,-177.56,4.11,13.18,-15.59
6730,76.75,-81.19,-184.87,2.45,15.91,-15.57
6740,67.25,-77.69,-149.75,4.2,18.42,-15.86
6750,82.81,-65.56,-110.75,5.04,18.26,-16.23
6760,64.5,-48.25,-68.94,5.84,17.7,-14.65
6770,21.06,-48.13,-29.06,6.85,16.61,-12.03
6780,1.69,-65.87,2.25,9.54,12.95,-9.21
6790,-2.5,-99.31,15.25,9.92,12.07,-9.19
6800,-3.19,-138,18.12,10.07,11.67,-10.49
6810,-7.06,-165.19,21.87,9.7,12.29,-13.77
6820,-13.38,-178.5,33.5,9.65,12.31,-15.51
6830,-25.19,-185.81,57.63,9.86,11.86,-16.77
6840,-40.69,-192.81,84.44,10.95,10.21,-18.92
6850,-54.5,-180.87,95.69,12.66,8.18,-21.96
6860,-61.31,-148.31,95.87,12.77,7.98,-22.6
6870,-69.5,-110.81,101.06,12.79,7.83,-22.2
6880,-80.19,-79.94,114.62,12.87,6.38,-19.88
6890,-80.81,-62.06,132.12,12.75,4.87,-20.27
6900,-85,-52.13,146.5,12.92,3.26,-21.41
6910,-102.37,-41.38,150.75,13.28,1.92,-22.51
6920,-117.56,-19.12,141.31,14.04,0.58,-24.02
6930,-122.69,21.19,121.75,14.07,0.91,-23.94
6940,-123,71.75,101.5,13.52,2.04,-22.61
6950,-123,71.75,101.5,11.16,4.21,-18.22
6960,-107.87,144.31,108.37,10.14,4.37,-16.41
6970,-102.87,148.12,137.25,9.15,3.55,-15.23
6980,-99.44,141.31,170.62,6.5,-0.3,-14.76
6990,-99.56,130.87,202.19,5.21,-2.71,-15.56
7000,-99.56,130.87,202.19,4.7,-5.17,-16.24
7010,-106.56,120.75,229.06,4.75,-7.29,-16.47
7020,-97.31,120,234.62,4.87,-10.22,-16.04
7030,-58.13,134.56,204.31,4.59,-10.58,-15.77
7040,-14.69,149.87,162.12,3.91,-10.41,-15.44
7050,-14.69,149.87,162.12,2.05,-9.88,-14.41
7060,19.62,162.56,122.87,1.75,-9.79,-13.43
7070,54.19,179.12,69.69,1.54,-9.87,-12.29
7080,62.44,180.56,47.69,1.56,-9.88,-11.06
7090,70.87,174.62,24.94,1.83,-9.57,-8.98
7100,70.87,174.62,24.94,2.2,-9.37,-8.45
7110,81.44,159.81,-0.13,2.27,-8.93,-8.31
7120,100.31,118.06,-61.06,2,-7.39,-8.45
7130,106.06,98.81,-88.31,1.87,-6.4,-8.61
7140,111.81,82.69,-111.06,1.89,-5.44,-8.66
7150,111.81,82.69,-111.06,1.93,-4.38,-8.75
7160,118.12,66.25,-129.31,2.11,-2.17,-9.49
7170,130.12,31.56,-153.19,2.35,-1.07,-10.06
7180,130.69,18.31,-160.94,2.55,0.14,-10.82
7190,122.75,8.06,-167.69,2.83,3.21,-12.03
7200,122.75,8.06,-167.69,2.72,5.14,-11.39
7210,106.44,6.19,-175,2.16,6.69,-11.38
7220,132.19,25.37,-166.06,1.42,8.35,-11.69
7230,114.31,31.62,-145.44,1.36,8.6,-10.63
7240,81.25,36.63,-123.06,0.87,8.67,-9.18
7250,81.25,36.63,-123.06,0.67,8.06,-7.58
7260,75.75,33.69,-97.19,1.97,6.18,-7.27
7270,86.25,-48.75,-67.5,2.22,5.75,-7.67
7280,86.19,-94.12,-73.87,2.67,5.57,-8.87
7290,81.19,-118.37,-90.44,3.65,7.09,-11.04
7300,81.19,-118.37,-90.44,3.65,7.09,-11.04
7310,70.56,-129.81,-111.12,3.29,8.39,-11.83
7320,60.69,-144.69,-126.81,3.58,9.9,-13.3
7330,65.62,-140.62,-127.75,4.53,11.25,-16.2
7340,49,-122.75,-130.06,3.75,12.6,-16.29
7350,49,-122.75,-130.06,3.75,12.6,-16.29
7360,28.12,-97.94,-116.37,3.86,13.41,-15.8
7370,-3.19,-72.87,-66.5,7.07,13.01,-12.17
7380,-6.31,-73.75,-55.19,7.77,13.33,-11.21
7390,-6.5,-79.81,-52.63,8.09,14.08,-10.92
7400,-6.5,-79.81,-52.63,8.09,14.08,-10.92
7410,-18.37,-91.75,-48.38,8.7,16.32,-10.59
7420,-44.19,-127,-9.31,8.51,17.74,-10.24
7430,-37.38,-142.37,26.56,9.8,16.86,-11.39
7440,-29.44,-156.06,61.75,10.6,16.3,-12.25
7450,-29.44,-156.06,61.75,10.6,16.3,-12.25
7460,-21.69,-167.5,89.06,10.84,15.87,-13.48
7470,-11.06,-167.19,112.62,11.87,13.15,-16.14
7480,-16.19,-168,137.19,12.35,11.97,-16.76
7490,-37.31,-177.06,159.31,12.22,10.52,-18.08
7500,-46.5,-164.31,172.12,12.22,10.52,-18.08
7510,-42.38,-142.25,179.19,13.5,7.09,-22.49
7520,-61.81,-112,177.19,13.73,6.03,-23.55
7530,-104.81,-76.75,168.06,14.5,7.16,-20.99
7540,-129.37,-34.88,158.19,13.86,9.02,-18.92
7550,-115.87,9,149.31,13.86,9.02,-18.92
7560,-80.31,35.75,153.62,12.24,11,-17.39
7570,-49.56,34.56,187.62,5.37,7.67,-16.91
7580,-31.94,15,253.12,3.34,2.87,-18.23
7590,-24.19,-5.19,328.94,0.85,-1.67,-19.41
7600,-34.69,-18.44,392.44,0.85,-1.67,-19.41
7610,-66,-26.94,440.19,-1.46,-11.11,-22.82
7620,-121.19,-33.31,461.5,-0.25,-17.01,-22.94
7630,-167.31,-27.44,444.56,0.92,-18.06,-22.14
7640,-160.19,-0.62,388.06,2.66,-17.33,-21.1
7650,-88.62,55.13,296.94,2.66,-17.33,-21.1
7660,10.69,128.75,185.06,2.55,-15.77,-20.33
7670,89.25,193.75,66.75,-2.94,-6.64,-14.98
7680,114.69,235,-5.44,-2.66,-5.88,-13.13
7690,109.19,257,-26.5,-2.17,-5.68,-10.87
7700,81.19,262.06,-24.56,-2.17,-5.68,-10.87
7710,47.81,250.44,-19.12,-1.45,-5.69,-8.92
7720,32,227.94,-18.62,-0.11,-5.62,-5.77
7730,48.31,203.75,-22.5,0.35,-6.11,-6.31
7740,79.94,175.56,-31.81,0.56,-5.86,-7.25
7750,86.31,127.44,-48.63,0.56,-5.86,-7.25
7760,83.5,90.25,-69.25,0.73,-5.51,-7.84
7770,98.06,78.19,-90.56,0.55,-3.79,-8.51
7780,111.37,73.56,-111.81,0.44,-2.81,-8.22
7790,116.69,64.75,-131.87,0.55,-1.99,-8.53
7800,125.56,48.38,-147.75,0.55,-1.99,-8.53
7810,134.81,27.31,-160.06,0.7,-1.31,-9.35
7820,136,9.44,-170.94,0.22,1.31,-11.75
7830,129.87,1.37,-180.19,0.19,2.2,-12.03
7840,115.94,-0.19,-187.31,1.04,4.32,-12.32
7850,101.56,-2.06,-193,1.04,4.32,-12.32
7860,95.94,2.94,-200.56,1.72,5.36,-12.23
7870,96.5,12.69,-211.25,2.45,7.85,-12.26
7880,95.31,25.5,-221.56,2.46,10.61,-11.84
7890,82,40,-227.25,2.97,11.52,-11.25
7900,52.63,55.63,-225.12,2.97,11.52,-11.25
7910,21.87,81.81,-227.31,3.4,12.01,-10.33
7920,11.25,102.44,-223.62,2.73,13.79,-6.83
7930,1.25,47.31,-163.37,3.91,13.74,-6.4
7940,10.75,22.12,-127.69,4.87,13.21,-6.82
7950,21.75,-9.06,-105.81,4.87,13.21,-6.82
7960,23.69,-43.44,-99.94,6.08,13.79,-7.86
7970,30.06,-64.94,-104.25,5.88,16.01,-8.66
7980,39.94,-84.06,-103.87,6.27,17.12,-10.01
7990,51.94,-95,-87.25,6.72,16.67,-11.1
8000,61.38,-103.75,-60.75,6.72,16.67,-11.1
8010,54.25,-103.87,-31.19,7.87,15.62,-11.69
8020,25.75,-95.25,-11.13,10.21,14.23,-8.56
8030,-10.06,-87.12,-5.62,10.6,14.54,-7.16
8040,-38.5,-87.94,-4.5,10.93,14.86,-6.34
8050,-56,-100.25,-0.56,10.93,14.86,-6.34
8060,-63.75,-120.56,7.5,11.34,14.88,-5.86
8070,-61.31,-142.12,20.5,12.01,14.33,-7.13
8080,-56.69,-167.25,34.5,13,13.72,-10.18
8090,-52.88,-191.69,46.69,13.12,13.67,-11.56
8100,-55.56,-214.94,57.81,13.12,13.67,-11.56
8110,-67.94,-240.87,69.69,13,13.6,-12.37
8120,-71.12,-267.12,87.06,13.15,13.51,-12.9
8130,-52,-278.87,104.69,14.92,11.74,-17.88
8140,-25.12,-220,109.31,14.11,10.67,-20
8150,-22.5,-159.31,109.37,14.34,9.93,-21.8
8160,-52.94,-108.31,108.37,13.98,9.72,-21.13
8170,-79.75,-58.56,109.69,13.52,9.75,-19.93
8180,-81.44,-17.75,119.06,13.01,9.23,-19.18
8190,-76.37,10.06,134.12,12.44,8.35,-18.53
8200,-79.69,24.94,150.06,11.17,6,-18.18
8210,-87.31,33.69,162.94,10.72,5.03,-18.35
8220,-91.94,46.69,171,10.25,4.12,-18.57
8230,-96.69,66.5,175.06,8.63,2.32,-18.02
8240,-103.56,89.5,177.94,7.83,1.68,-16.88
8250,-104.06,109.44,181.75,7.47,0.83,-15.74
8260,-97.44,124.81,185.19,6.69,-0.21,-14.62
8270,-96.25,126.56,187.12,5.97,-2.29,-12.71
8280,-98.19,115.12,183.94,5.67,-3.07,-12.13
8290,-91.06,99.19,176.25,5.45,-3.76,-11.92
8300,-72.56,86.56,163.81,4.86,-5.06,-12.61
8310,-54.25,79.12,146.69,4.6,-5.59,-12.96
8320,-42.25,81.81,128.75,4.66,-6.07,-12.7
8330,-38.44,92.56,110.06,4.81,-6.36,-11.76
8340,-37.19,98.25,89.81,3.85,-6.5,-8.65
8350,-29.19,85.31,71.12,3.28,-6.71,-7.66
8360,-8.94,42.19,53.81,2.58,-6.98,-7.84
8370,23.5,-21.31,36.56,1.62,-7.35,-12.63
8380,61.38,-72.12,15.38,1.85,-7.5,-15.92
8390,91.75,-91.81,-16.12,2.4,-7.32,-18.41
8400,119.5,-73,-61.94,3.1,-5.18,-20.79
8410,151.25,-24.75,-116.25,2.82,-2.88,-20.62
8420,177,36.19,-165.19,2.33,-0.13,-20.19
8430,172.81,86.81,-195.44,1.79,2.65,-18.99
8440,143.12,121,-202.25,0.74,7.18,-15.1
8450,112.12,144.69,-189.06,0.29,8.32,-12.55
8460,96.19,157.44,-160.5,0.31,8.55,-10.23
8470,92.44,155.5,-126.56,0.33,7.38,-7.7
8480,93.12,154.37,-97.56,-0.39,6.09,-6.43
8490,108.94,148.37,-71.81,-0.5,4.24,-5.62
8500,122,90.69,-55.5,-0.03,2.34,-5.57
8510,109.25,11.75,-65.25,1.3,1.97,-6.38
8520,104.37,-33.13,-98.19,1.45,3.7,-7.74
8530,124.31,-49.13,-134.94,1.23,5.79,-10.05
8540,123.56,-37.75,-161.69,1.34,10.92,-8.87
8550,111.19,-26.5,-173.56,-0.49,12.71,-9.01
8560,119.37,-9.88,-159.5,-1.22,13.76,-8.28
8570,108.44,-19.5,-119.56,-1.08,13.63,-7.45
8580,98.06,-52.19,-79.81,1.63,11.85,-7.7
8590,96.75,-82,-59.5,3.03,10.74,-9.42
8600,88.81,-95.87,-63.25,4.34,10.45,-11
8610,60.88,-88.62,-84.56,5.84,13.96,-9.38
8620,45.81,-70,-105.81,6.21,16.08,-8.36
8630,40.25,-62.06,-115.56,6.08,17.94,-7.36
8640,32.94,-66.56,-107.69,5.14,20.28,-5.89
8650,32.88,-76.69,-78.06,5.52,20.21,-5.65
8660,21.81,-102.12,-34.81,6.15,19.7,-5.42
8670,3.06,-141.12,7.5,7.16,18.56,-5.61
8680,-1.5,-177.56,38.06,10.13,15.48,-8.9
8690,-1.12,-202.56,48.44,11.22,15.06,-10.29
8700,-3.94,-212.87,40.5,11.19,16.14,-10.88
8710,1.69,-214.69,35.06,10.42,18.48,-12.13
8720,10.25,-217.69,50.19,10.04,18.8,-12.79
8730,15.69,-230.25,83.5,9.53,18.32,-13.67
8740,18.62,-249.69,130.87,9.56,16.57,-14.46
8750,9.13,-296.62,179.44,10.58,11.44,-16.17
8760,1.5,-347.69,212.12,12.21,8.9,-19.9
8770,22.19,-310.62,211.31,12.32,7,-23.02
8780,43.38,-277.19,192.56,12.01,6.84,-28.86
8790,48.31,-221.25,170.31,10.63,7.99,-29.67
8800,43.69,-157.69,165.12,9.36,8.76,-29.83
8810,38.06,-99.25,184.06,7.95,8.26,-30.94
8820,6.62,-40.75,220.5,4.69,3.15,-32.11
8830,-55.31,19.12,261.12,4.36,-0.48,-30.37
8840,-108.56,76.75,285.25,4.24,-3.66,-28.03
8850,-136.25,124,280.62,4.27,-7.81,-23.4
8860,-146.06,158.19,250.62,4.33,-7.87,-20.94
8870,-122.69,185.12,205.44,3.75,-6.96,-19.07
8880,-82.37,204.62,161.75,0.72,-3.84,-16.61
8890,-59.31,207,136.81,-0.37,-2.83,-15.64
8900,-51.94,194,135.19,-1.13,-2.77,-14.99
8910,-40.94,177.62,144.87,-1.51,-3.58,-14.76
8920,-23.69,168.81,152.44,-2.54,-6.31,-14.75
8930,-11.69,166.81,151.62,-2.4,-7.52,-14.54
8940,-13.75,166.62,141.44,-2.17,-8.32,-13.59
8950,-11.25,163.37,120.12,-2.32,-9.09,-12.46
8960,8.94,157.94,91.25,-2.18,-9.29,-12.5
8970,32.88,152.12,58,-1.64,-9.27,-12.34
8980,51.5,147.06,19.5,-1.2,-8.62,-11.95
8990,68.37,141.37,-20,-1.49,-5.25,-10.91
9000,84.62,133.75,-49.5,-1.61,-3.57,-10.53
9010,96.75,123.25,-63.38,-1.7,-2.4,-10.35
9020,105.25,113.81,-65.87,-1.64,-1.35,-9.81
9030,110.44,107.12,-63.56,-1.77,-1.33,-9.57
9040,110.87,98.62,-59.63,-1.8,-1.63,-9.36
9050,107.31,86.87,-56.19,-1.66,-2.18,-9
9060,104.75,72.87,-58.5,-1.12,-3.38,-8.08
9070,108.94,56.56,-72.56,-0.92,-3.62,-7.86
9080,120.56,39.56,-98.37,-0.57,-3.35,-7.8
9090,132.44,20.37,-132.31,0.04,-0.4,-8.68
9100,136.37,2.12,-167.75,0.46,1.84,-9.33
9110,127.31,-7.75,-197.81,0.49,4.36,-9.82
9120,106.12,-5.87,-216,-0.02,6.9,-10.03
9130,79.06,7.56,-216.37,-1.06,10.45,-9.14
9140,55.13,17.94,-199.44,-0.21,11.28,-7.12
9150,56.69,-13.81,-176.31,0.77,11.71,-6.9
9160,83.37,-51.25,-166.44,2.63,13.18,-9.74
9170,95.5,-73.81,-171.75,2.63,14.68,-9.79
9180,88.31,-89,-172.44,2.49,15.87,-9.7
9190,93.87,-98.69,-160.12,2.48,17.16,-10.79
9200,90.75,-105.25,-139.5,2.93,17.45,-11.3
9210,64.12,-117.94,-117,3.51,17.88,-11.8
9220,31,-131.19,-96.12,3.72,18.16,-12.2
9230,14.88,-132.81,-74.31,5.39,17.23,-14.01
9240,1.44,-118.69,-56.94,6.47,16.8,-13.43
9250,-18.75,-91.56,-50.44,7.28,17.05,-11.59
9260,-34.31,-69.37,-48.5,8.07,18.29,-7.12
9270,-42.56,-60.44,-42.5,8.03,18.57,-5.47
9280,-43.5,-67,-28.31,7.65,18.8,-4.89
9290,-44.56,-89.94,-3.56,7.03,18.61,-4.67
9300,-48.13,-147.31,33.06,7.96,16.4,-6.98
9310,-51.63,-215.62,68,8.71,15.12,-9.31
9320,-52.31,-252.94,87.25,8.73,14.46,-11.32
9330,-49.13,-272.94,100.87,8.6,13.59,-13.56
9340,-42,-303.69,122.56,8.71,12.43,-14.93
9350,-28.81,-342.31,148.37,9.92,10.75,-19.01
9360,-13.88,-310.56,160.19,8.73,9.24,-21.8
9370,-7.56,-298.19,171.75,9.04,6.09,-28.09
9380,-4.06,-266.69,178.69,9.08,4.48,-31.14
9390,-3.44,-209.5,177.12,9.41,3.05,-33.49
9400,-22.81,-129.31,166.75,8.33,2.22,-34.98
9410,-66.12,-39.44,156.56,7.55,2.24,-32.79
9420,-87.19,50.69,153.31,6.78,1.8,-30.11
9430,-88.12,123,154,5.2,0.67,-23.5
9440,-83.19,161.94,155.94,4.65,0.26,-21.38
9450,-71.94,175.69,159.69,4.25,-0.16,-19.92
9460,-62.5,174.56,163.75,3.83,-0.51,-18.81
9470,-54,166.25,166.31,2.72,-1.47,-17.76
9480,-46.06,157.81,167.56,2.35,-1.87,-17.45
9490,-39.13,154.44,167.37,2.05,-2.15,-16.89
9500,-28.94,155,164.37,1.21,-2.32,-15.24
9510,-9.69,156.37,158.19,1.19,-2.03,-14.62
9520,17.25,155.94,149.87,0.9,-1.53,-14.2
9530,40.63,153.56,144.25,0,-0.98,-14.01
9540,53.5,151.31,148.25,-1.88,-1.27,-12.61
9550,62.81,147.94,161.56,-1.9,-2.4,-11.88
9560,76,137.81,174,-1.54,-3.85,-11.41
9570,91.94,122.94,174.37,-1.48,-6.46,-10.93
9580,107.5,107.81,160.12,-1.38,-7.57,-10.91
9590,119.94,96.75,134.56,-1.29,-8.41,-10.95
9600,123.19,87.87,101,-1.29,-8.94,-10.78
9610,121.12,78.81,59.94,-1.44,-8.61,-10.25
9620,120.87,67.81,15.81,-1.77,-7.98,-10.35
9630,124.75,55.19,-24.75,-2.44,-7.07,-10.78
9640,126.37,45.19,-54.75,-3.39,-5.49,-11
9650,129.69,40.19,-75.25,-3.68,-5.26,-10.82
9660,137.69,35.56,-93,-3.95,-5.19,-10.59
9670,147.44,25.12,-112.37,-4.04,-5.2,-10.44
9680,155.94,8.38,-136.56,-3.99,-4.57,-11.1
9690,159.62,-11.88,-168.56,-3.6,-3.92,-11.69
9700,159.19,-25.37,-209.19,-3.08,-2.6,-12.34
9710,152.69,-27.75,-255.31,-2.95,1.97,-13.12
9720,133.69,-22.5,-296.31,-3.15,4.42,-13.41
9730,94.94,-17.37,-323.62,-3.46,6.98,-13
9740,53,-10.63,-335.31,-3.02,11.67,-9.6
9750,71.25,-6.25,-331.56,-2.49,13.02,-10.71
9760,107.75,0.44,-317.06,-2.29,14.21,-11.74
9770,93.56,4.87,-295.06,-1.8,15.43,-10.75
9780,63.38,-4.81,-265,0.29,16.8,-8.93
9790,55.13,-9,-237.37,1.14,16.89,-8.32
9800,63.25,-11.25,-216.06,2.45,17.04,-8.16
9810,56.69,-20.75,-203.19,4.89,18.61,-6.85
9820,33.81,-54.06,-197.12,5.33,20.24,-6.14
9830,28.62,-110.5,-189.25,5.63,21.84,-7.02
9840,53.44,-157.19,-168.69,5.91,22.82,-9.21
9850,72.94,-181.37,-135,7.39,23.6,-14.09
9860,61.75,-182.81,-94.19,8.09,23.55,-15.33
9870,29.94,-161.69,-48.63,9.25,23.32,-15.35
9880,-8.56,-127.69,-3.75,11.1,22.09,-11.18
9890,-44.94,-106.94,38.75,11.45,20.98,-8.56
9900,-66.12,-116.87,81,11.71,19.54,-6.9
9910,-65.12,-154.69,120.87,12.06,17.71,-6.87
9920,-53.88,-208.94,152.31,12.23,14.18,-11.47
9930,-45.63,-263.44,173.25,11,13.13,-14.71
9940,-45.06,-326.87,192.31,9.61,12.73,-16.95
9950,-22.87,-352.19,210.31,8.6,9.61,-25.33
9960,21.62,-311.31,227.75,8.12,7.41,-29.83
9970,17.56,-264.19,243.87,7.7,5.49,-32.02
9980,-22.5,-193.62,251.19,6.17,2.37,-33.39
9990,-59.94,-111.31,253.87,5.75,0.54,-32.57
10000,-81.56,-23.75,253.06,5.48,-1.12,-30.51
