timestamp,gyrox,gyroy,gyroz,accx,accy,accz
10,0.06,-35.63,170.87,7.18,1.53,-23.09
20,-100.87,6.37,187.62,7.13,1.8,-21.84
30,-135.81,19.75,210.81,7.97,0.45,-18.83
40,-158.94,-0.25,212.94,10.45,-3.48,-14.67
50,-158.94,-0.25,212.94,10.73,-2.91,-14.66
60,-140.19,-82.75,200.44,10.25,-1.1,-17.33
70,-112.06,-114.37,232.06,10.4,1.06,-25.62
80,-48.63,-104.12,296.06,9.03,-0.07,-31.95
90,-6.81,-29.19,379.31,8.42,-4.36,-37.32
100,-6.81,-29.19,379.31,6.86,-15,-35.62
110,-16.75,92.5,439.87,7.13,-20.04,-30.19
120,-82.5,289.56,475.37,6.84,-23.93,-23.4
130,-72.5,321.81,472.25,5.34,-25.48,-17.29
140,-43.19,295,393.81,11.14,-31.47,-11.67
150,-43.19,295,393.81,11.69,-30.09,-10.02
160,-18.94,242.69,261.31,10.18,-26.26,-10.84
170,46.19,160.25,72.94,5.65,-17.05,-13.25
180,56.25,150.19,68.75,5.71,-16.5,-13.87
190,52.63,141.94,75.31,6.61,-17.92,-13.94
200,52.63,141.94,75.31,7.43,-20.07,-13.96
210,62.06,129.25,61.06,8.42,-23.05,-16.9
220,109.31,121.81,-43.81,7.89,-22.64,-18.57
230,100.69,133.81,-110.69,6.62,-20.65,-18.81
240,90.5,149.81,-162.69,3.16,-14.03,-16.71
250,90.5,149.81,-162.69,1.58,-11.1,-15.41
260,80.31,159.69,-188.37,0.8,-9.07,-13.92
270,77.69,155.31,-158.44,0.76,-8.37,-12.7
280,95,146.37,-131.44,1.03,-10.35,-11.96
290,109.44,139.69,-116.44,1.49,-12.58,-11.67
300,109.44,139.69,-116.44,1.49,-12.58,-11.67
310,120.5,136.25,-121,1.66,-18.22,-8.88
320,122.06,131.12,-197.5,1.41,-17.96,-7.08
330,154.19,104.75,-250.62,0.37,-16.19,-7.15
340,170.94,70.44,-285.81,-1.87,-11.15,-7.38
350,170.94,70.44,-285.81,-1.87,-11.15,-7.38
360,190,43.13,-301.06,-2.41,-9.1,-8.41
370,189.19,16.44,-284.87,-3.21,-5.08,-9.18
380,177.69,8.56,-256,-2.71,-3.93,-9.39
390,153,-3.06,-227.75,-2.1,-4.54,-9.12
400,153,-3.06,-227.75,-2.1,-4.54,-9.12
410,130.62,-14.19,-213.31,-1.55,-5.46,-8.71
420,106.87,-34.38,-239.19,-0.47,-5.41,-6.72
430,129.87,-50.81,-254.81,-2,-4.99,-4.1
440,185.31,-58.13,-278.12,-1.63,-3.67,-7.44
450,185.31,-58.13,-278.12,-1.63,-3.67,-7.44
460,169.19,-48,-289.19,-3.26,2.57,-7.45
470,140.19,-20.12,-224.62,-2.46,4.82,-9.37
480,104,-84.56,-161.12,-1.83,6.87,-1.56
490,135.87,-154.87,-104.94,-1.51,6.43,-4.38
500,135.87,-154.87,-104.94,-1.51,6.43,-4.38
510,157.75,-206.62,-63.19,-1.12,5.96,-8.89
520,134.44,-243.81,-26.37,0.08,3.62,-11.49
530,107.75,-268.31,2.19,0.72,2.07,-11.67
540,103.81,-283.5,22.87,1.2,1.22,-13.68
550,112.5,-286.31,25.19,1.2,1.22,-13.68
560,139.81,-239.06,14.13,1.96,2.29,-20.48
570,135,-200.87,7.81,1.79,6.03,-22.08
580,118.19,-166.12,17.94,1.74,6.99,-23.21
590,120,-124.69,48,3.02,5.9,-23.28
600,107.87,-80.37,90.37,3.02,5.9,-23.28
610,89.69,-39.5,124.56,3.71,3.95,-23.04
620,52,-4.06,139.5,3.65,1.01,-16.12
630,24.62,15.94,147.25,5.31,0.56,-16.65
640,38.81,27.5,148.81,5.4,-2.72,-18.2
650,-7.5,11.94,143.81,5.4,-2.72,-18.2
660,-30.25,9,109.19,4.56,-0.08,-13.64
670,27.06,17.44,85.94,3.37,3.87,-15.77
680,37.13,12.06,89.81,2.89,5.86,-15.84
690,23.31,10.19,114,4.08,4.8,-17.51
700,1,17.37,148.37,4.08,4.8,-17.51
710,-55.81,24.06,173.12,4.87,4.34,-15.89
720,-102.75,19.69,193.75,6.56,-0.66,-11.89
730,-144.25,0,221.12,8.03,-4.16,-13.39
740,-152.75,-29.81,240.37,9.15,-5.57,-16.68
750,-165.12,-53.75,239.37,9.15,-5.57,-16.68
760,-196.69,-61,227.5,10.78,-7.45,-16.92
770,-188.19,-56.25,194.31,13.11,-6.62,-17.12
780,-170.12,-54.38,164.69,13.45,-4.09,-17.69
790,-144.56,-57.38,156.25,13.85,-4.21,-21.48
800,-122.19,-64.94,193.56,13.85,-4.21,-21.48
810,-90.94,-57.31,241.69,14.76,-7.66,-24.6
820,-66.81,-22.62,266.87,13.38,-16.36,-27.52
830,-42.31,47.25,281.87,12.83,-19.5,-26.27
840,-17.25,137.12,284.75,12.3,-21.77,-22.82
850,-40,216.25,272.06,12.3,-21.77,-22.82
860,-85.56,266.94,260.81,10.84,-22.23,-18.01
870,-103.12,279.87,261.37,13.86,-26.43,-7.89
880,-98.56,243.87,195.25,13.87,-24.97,-6.04
890,-77.5,192.5,114.81,11.58,-18.61,-8.68
900,-22.06,141.62,50.69,11.58,-18.61,-8.68
910,21.81,106.25,21.5,10.61,-16.2,-11.41
920,32.88,95.12,21.37,10.56,-16.19,-15.03
930,24.5,104.12,21.19,10.61,-18.87,-14.57
940,6,121.69,5.94,10.54,-19.25,-13.83
950,-9.13,129.87,-30.25,10.54,-19.25,-13.83
960,-13,123.56,-80.5,10.09,-17.89,-12.74
970,23.87,114.31,-126.87,6.12,-4.89,-14.14
980,82.62,106.44,-138.69,4.95,-2.8,-15.91
990,137,111.69,-109.75,3.94,-3.11,-22.34
1000,121.25,140.31,-64.25,3.94,-3.11,-22.34
1010,-5.06,185.81,-11.63,4.77,-5.51,-12.87
1020,-22.44,199.12,25.31,7,-13.16,-8.68
1030,21.5,191.87,7.87,5.53,-11.65,-6.9
1040,36.38,160.56,-36.44,4.83,-10.62,-7.99
1050,52,121.62,-67.12,4.83,-10.62,-7.99
1060,51.56,91.94,-81.06,4.51,-10.5,-10.02
1070,15.56,75.12,-94.44,3.98,-8.62,-8.84
1080,10.31,73.31,-112.06,3.7,-7.75,-9.88
1090,45.38,72.94,-125.75,3.7,-7.75,-9.88
1100,44.94,65.81,-130.37,3.37,-6.64,-10.67
1110,29.06,59,-125.19,2.79,-5.74,-9.93
1120,29.31,56.94,-120.25,2.32,-5.97,-10.83
1130,8.06,60.19,-113.44,4.3,-5.66,-9.86
1140,43.06,52.44,-112.19,1.29,-5.63,-8.79
1150,108.37,66.81,-112.06,1.88,-5.61,-10.25
1160,46.06,55.13,-101.31,1.6,-4.82,-7.05
1170,45,43.75,-87.12,2.09,-5.93,-4.93
1180,68.12,35.88,-96.31,3.2,-6.8,-5.46
1190,65.87,14,-108.5,2.46,-6.69,-3.48
1200,111.75,-12.13,-117.12,2.08,-5.96,-4.03
1210,128.87,-27.62,-117,1.99,-4.62,-6.72
1220,96.62,-47.19,-106.75,2.38,-4.21,-5.36
1230,105.19,-56.63,-95.44,2.73,-5.4,-5.69
1240,115.06,-61,-98.75,3.53,-6.64,-6.96
1250,92.62,-71.25,-116.12,3.44,-5.46,-5.47
1260,94.37,-85.5,-132,3.38,-4.33,-4.41
1270,117.37,-109.69,-140.06,2.97,-3.79,-5.45
1280,112.12,-134.75,-144.75,3.23,-1.78,-7.52
1290,95.12,-157,-146.37,3.27,-0.68,-8.11
1300,90.56,-177.37,-144.56,3.65,0.23,-9.13
1310,81.25,-200.25,-139.37,3.55,1.02,-10.64
1320,67.81,-221.75,-131.62,4.16,2.46,-12.33
1330,85.31,-233.19,-127.12,4.21,3.67,-13.54
1340,132,-226.25,-117.06,3.89,4.4,-16.61
1350,139,-204.75,-96.37,3.73,4.71,-22.16
1360,95.12,-165.12,-71.12,3.98,3.98,-22.52
1370,32.38,-122.5,-54.88,4.55,2.84,-20.71
1380,-7.75,-94.56,-58.06,5.3,2.09,-15.38
1390,-14.38,-84.94,-74.87,5.32,2.91,-12.98
1400,-3.5,-89.62,-89.06,5.08,3.67,-11.5
1410,5.19,-105.5,-98.56,4.85,4.7,-11.38
1420,11.19,-119.62,-100.87,4.02,8.11,-11.61
1430,24.94,-129.44,-86.75,3.83,8.86,-12.75
1440,24.25,-133.44,-57.63,3.27,8.39,-14.08
1450,7.69,-130.69,-30.31,4.97,4.79,-14.06
1460,-5.62,-133.06,-19.44,6.13,2.55,-16.05
1470,-34.13,-141.44,-35.69,7.38,1.89,-15.05
1480,-1.12,-148.31,-69.62,7.82,2.76,-15.43
1490,58.13,-130,-93.44,6.29,7.48,-22.49
1500,64.25,-82.44,-87.69,5.6,9.93,-23.59
1510,35.69,-27.12,-51.06,5.69,10.65,-22.71
1520,11.31,28.37,-13.38,6.84,9.53,-17.85
1530,-26.94,60.13,7.37,7.15,9.2,-14.12
1540,-73.81,46,18.81,7.39,8.78,-10.7
1550,-85.37,-3.12,24.25,7.46,9.08,-9.71
1560,-66.19,-58.56,27.62,7.06,9.59,-11.88
1570,-38.31,-94.25,26.62,6.51,11.07,-14.72
1580,-4.69,-98.75,28.31,6.87,13.19,-17.29
1590,23.44,-78.81,35.13,5.14,16.46,-22.44
1600,24.25,-35.38,73.44,4.24,17.62,-24.27
1610,-35.75,15,151.87,3.95,16.61,-24.95
1620,-150.12,39.75,236.94,7.98,7.65,-15.49
1630,-203.5,27,275.06,9.53,4.14,-12.22
1640,-171.31,-14.69,275.31,10.8,2.5,-12.11
1650,-105.37,-60.31,267.81,11.18,2.04,-15.03
1660,-58.25,-79.12,278.5,12.19,-1.37,-25.03
1670,-56.25,-56.75,303.62,13.47,-5.15,-28.55
1680,-81.25,4.06,313,14.78,-8.85,-29.62
1690,-103.94,90.62,292.31,16.2,-13.65,-25.1
1700,-136.06,160.12,256.44,16.48,-13.94,-19.83
1710,-150.62,185.31,219.19,16.52,-13.34,-14.65
1720,-119.81,173.06,188.44,16.64,-12.58,-11.35
1730,-77.75,140.25,165.25,15.96,-11.95,-11.7
1740,-67.62,108.87,150.81,15.82,-13.02,-13.23
1750,-94.62,97.37,126.81,15.71,-13.74,-13.63
1760,-143.56,89.25,92.75,14.17,-12.52,-10.86
1770,-181.44,71.5,57.81,13.14,-10.25,-8.91
1780,-187.12,36.75,35.44,11.46,-7.56,-7.8
1790,-153.75,-3.37,40.5,10.02,-7.85,-8.54
1800,-84.12,-43.25,60,10.14,-9.9,-11.26
1810,-0.31,-66.12,66.81,10.03,-12.05,-15.36
1820,58.75,-47.5,51.69,9.98,-14.03,-19.46
1830,58,1,14.69,8.86,-16.36,-21.68
1840,16.37,51.88,-36.25,8.28,-16.39,-19.27
1850,-19.94,85.5,-97.25,7.18,-15.2,-16.17
1860,-36.19,90.62,-155.62,4.43,-10.75,-11.54
1870,-32.13,74.75,-200.06,2.98,-7.77,-10.7
1880,-15.69,51.88,-223.94,1.77,-4.77,-10.67
1890,-3.62,33.25,-218.94,0.97,-2.73,-11.08
1900,-8.19,17.69,-192.12,0.89,-2.54,-11.8
1910,-7.81,9.56,-163.75,1.48,-3.87,-11.93
1920,20.44,14.38,-151.69,1.69,-4.89,-12.23
1930,57.56,27.31,-156.37,2.16,-5.02,-13.74
1940,69.25,39.56,-162.87,1.47,-5.07,-12.06
1950,94.62,50.06,-179.19,0.19,-3.2,-12.84
1960,103.75,66.75,-180.19,-0.33,-2.97,-12.58
1970,75,66.56,-175.87,-1.55,-2.14,-10.95
1980,28.25,62.56,-166.81,-1.33,-2.86,-9.44
1990,-8.44,56.56,-166.69,-1.44,-3.58,-6.55
2000,20.19,38.63,-182.06,-1.42,-2.71,-5.54
2010,60.63,-14.94,-199.37,-2.68,-0.12,-5.19
2020,113.5,-92.69,-188.94,-3.78,2.11,-7.66
2030,166.25,-131.62,-152.5,-2.39,-0.74,-15.02
2040,147.19,-167.56,-136.62,-2.39,-0.55,-15.94
2050,144.31,-113.37,-141.87,-3.19,-1.94,-18.01
2060,154.19,-37.56,-163.87,-1.78,-3.16,-20.78
2070,91.69,2.31,-202.12,-4.27,3.63,-13.56
2080,91.87,15.06,-216.56,-4.49,5.98,-12.08
2090,118.19,-4.75,-204.12,-4.77,7.36,-12.72
2100,123.37,-28.94,-180.19,-4.65,9.57,-15.56
2110,115.37,-33.81,-148.56,-4.4,9.79,-16.66
2120,93.87,-20.25,-112.19,-3.95,9.21,-16.7
2130,64,-9.25,-80.62,-3.1,8.33,-15.41
2140,57,-11.81,-63.06,-1.11,7.93,-14.31
2150,77.44,-19.06,-55.81,-0.68,8.36,-15.75
2160,95.06,-15.31,-48.5,-0.45,8.7,-17.8
2170,86.62,7.44,-36.5,-0.32,9.58,-18.8
2180,65.25,40.5,-17.5,-0.12,9.08,-17.47
2190,34.56,63.69,3.44,0.28,8.18,-15.13
2200,0.25,57.69,17.12,0.77,7.48,-11.86
2210,0.88,19.75,24.69,2.84,7.03,-8.71
2220,40,-35.38,26.87,3.72,7.76,-11.73
2230,76.56,-58.5,28.25,3.18,9.12,-15.96
2240,73.19,-39.06,46.44,3.72,11.57,-17.52
2250,49.63,-14.31,82.44,4.21,9.88,-16.8
2260,20.37,10.88,98.87,3.86,9.5,-14.12
2270,-2.19,12.56,111.19,3.69,9.44,-10.66
2280,-1.12,-23.5,131.69,4.83,6.8,-8.54
2290,15.19,-74.31,141.37,5.49,6.02,-10.05
2300,36.19,-108.12,135.87,6.06,6.47,-13.04
2310,44.56,-110.19,131.56,6.34,9.73,-18.57
2320,36.25,-81.19,142.69,5.88,11.13,-19.89
2330,21.75,-33.19,167.44,5.4,12.32,-19.52
2340,9.13,13,205.37,5.41,11.76,-15.9
2350,5.69,38.94,246.56,5.24,9.77,-14.99
2360,1.62,45.75,287.81,6.39,5.47,-14.85
2370,-17.56,37.13,303.69,9.01,0.78,-14.24
2380,-34.19,28.44,260,11.68,-1.91,-14.69
2390,-54.44,23.75,185.25,10.53,1.7,-14.57
2400,-82.37,11.88,141.44,8.92,5.78,-14.19
2410,-115.12,-14.19,146.75,7.04,9.76,-13.27
2420,-118.12,-55.06,185.94,6.41,9.75,-15.41
2430,-76.19,-82.19,240.44,6.28,8.35,-20.37
2440,-39.69,-72.25,294.94,6.23,6.06,-24.81
2450,-23.62,-25.31,340.25,6.67,-1.05,-29.49
2460,-34.88,46.69,367.25,7.75,-5.54,-28.85
2470,-85.81,105.06,367.81,8.77,-9.53,-25.73
2480,-138.12,123.25,342.37,10.97,-15.19,-18.16
2490,-145.25,105.5,295.5,11.69,-15.43,-16.78
2500,-95.56,81.19,239.81,11.09,-15.09,-18.98
2510,-50.75,81.5,196.56,9.08,-13.17,-21.84
2520,-30.25,106.5,183.56,8.84,-14.36,-22.17
2530,-42.69,142.44,187.19,8.69,-16.54,-20.37
2540,-67.12,167.62,193.06,8.76,-19.16,-17.35
2550,-60.94,185.37,210.94,14.63,-24.09,-12.94
2560,-34.63,182.25,162.06,12.29,-27.24,-13.88
2570,-69,148.19,29.06,11.36,-25.85,-10.8
2580,-51.5,114.69,-91.12,6.9,-14.77,-10.2
2590,8.25,81.25,-162.56,5.06,-9.31,-12.31
2600,35.69,58.56,-168.94,4.12,-6.19,-14.24
2610,39.19,55.38,-144.69,3.74,-5.03,-15.8
2620,22.69,66.5,-115.69,3.76,-6.7,-17.01
2630,-6.31,83.62,-99.31,4.2,-8.15,-15.81
2640,-26.19,96.37,-103.81,4.52,-9.03,-13.84
2650,-22.12,96.69,-124.06,3.92,-8.44,-11.4
2660,-7.94,84.75,-146.75,3.38,-7.23,-11.07
2670,9.94,69.87,-160.75,3.1,-6.19,-11.48
2680,26.5,62,-165.31,2.34,-5.55,-12.09
2690,38.31,61.06,-161.31,2.49,-5.01,-11.34
2700,64.56,57.06,-158.31,2.07,-5,-13.07
2710,89.94,70,-164.5,1.72,-3.82,-14.64
2720,60.81,76.5,-150.75,2.19,-5.34,-11.21
2730,41.38,72.37,-144.5,2.39,-6.95,-10.69
2740,35.88,65.37,-164.62,2.59,-6.48,-9.41
2750,42.13,46.25,-187.94,1.37,-4.38,-8.79
2760,72.19,27.44,-206.81,0.65,-2.72,-9.78
2770,83.5,18.25,-215.69,-0.02,-1.01,-10.01
2780,86.87,14.94,-208.44,-0.38,0.38,-9.6
2790,95.19,12.19,-186.94,-0.35,0.68,-9.2
2800,99.06,6.31,-166.87,-0.08,0.13,-9.2
2810,99.06,6.31,-166.87,0.09,-0.6,-8.92
2820,84.5,-12.63,-162.62,0.12,-0.76,-8.11
2830,86.56,-26.19,-176.44,-0.16,0.61,-8.36
2840,99.87,-38.44,-188.75,-0.85,2.24,-9.62
2850,106.81,-42.44,-186.12,-1.25,3.31,-11.08
2860,95.44,-34.44,-170.37,-1.29,4,-11.95
2870,76.06,-19.62,-151.56,-1.49,3.42,-10.26
2880,66.37,-15.56,-140.56,-1.3,3.27,-9.05
2890,71,-16.75,-137.37,-0.91,2.73,-7.88
2900,77.31,-40.25,-139.5,-0.8,3.18,-7.8
2910,77.31,-40.25,-139.5,-0.95,4.5,-8.39
2920,117.56,-157.37,-144.75,-0.89,5.64,-10.86
2930,141.94,-220.25,-151.19,-0.1,8.41,-18.8
2940,176.31,-214.75,-168,-0.49,10.41,-25.2
2950,188.37,-154.62,-179.19,-1.05,13.24,-29.77
2960,188.37,-154.62,-179.19,-1.05,13.24,-29.77
2970,127.5,-74.5,-171.31,-3.9,19.15,-22.1
2980,18.12,59.19,-17.5,-1.8,17.14,-17.38
2990,8.13,57.69,55.81,0.53,11.84,-10.29
3000,32.06,17.62,93.31,1.05,10.07,-10.69
3010,32.06,17.62,93.31,0.37,9.38,-13.14
3020,98.94,-15.69,106.75,1.04,10,-13.7
3030,157.87,-35.19,128.94,2.83,8.8,-16.14
3040,162.19,-26.87,113.75,1.73,11.56,-16.68
3050,138.94,-9.63,105.25,1.07,14.04,-15.62
3060,138.94,-9.63,105.25,1.07,14.04,-15.62
3070,103.81,-11.38,133.19,1.47,12.89,-15.36
3080,51.94,-36.25,191.94,2.99,9.71,-16.76
3090,56.81,-27.25,204.44,3.54,8.51,-18.67
3100,42,-3.44,215.62,5.07,6.68,-19
3110,42,-3.44,215.62,5.07,6.68,-19
3120,17.75,31.31,225.31,7.29,3.24,-15.31
3130,-113.69,37.88,217.12,9.8,1.26,-7.92
3140,-151.25,-20.06,200.31,10.19,2.05,-7.82
3150,-130,-91.12,177.19,9.09,5.11,-10.74
3160,-130,-91.12,177.19,9.09,5.11,-10.74
3170,-82.31,-134.81,191.5,8.58,6.44,-17
3180,-62.88,-87.81,297.87,8.96,0.38,-28.46
3190,-60.88,-25.37,348.44,10.04,-4.38,-30.07
3200,-80.5,44.75,371.75,12.89,-13.83,-28.14
3210,-80.5,44.75,371.75,12.89,-13.83,-28.14
3220,-116.12,105.31,359.75,13.67,-16.49,-24.71
3230,-128,163.87,258.94,13.38,-14.7,-15.13
3240,-102.25,155.62,212.5,12.63,-12.37,-14.44
3250,-66.81,140.69,187.69,11.74,-10.27,-14.86
3260,-66.81,140.69,187.69,11.74,-10.27,-14.86
3270,-43.5,133.12,189.94,10.85,-9.09,-15.29
3280,-11.38,139.44,247.37,11.48,-16.59,-17.74
3290,-8.13,156.25,258.06,11.45,-19.66,-17.7
3300,-17.69,181.87,250.69,11.06,-22.4,-14.89
3310,-17.69,181.87,250.69,11.06,-22.4,-14.89
3320,-17.75,209.56,234.75,14.5,-25.3,-14.29
3330,-19.5,211,122.25,10.92,-22.71,-10.17
3340,-41.56,193.31,10.38,7.43,-15.12,-10.07
3350,-5.56,170.69,-74.19,6.5,-11.92,-10.87
3360,36.13,145.81,-120.94,6.5,-11.92,-10.87
3370,40.75,118.69,-131.25,5.64,-9.6,-11.33
3380,36.56,98.62,-119.81,4.88,-8.72,-12.84
3390,37.94,90.56,-106.06,4.74,-9.16,-12.74
3400,37.5,93.37,-100.37,4.73,-9.66,-11.95
3410,23.56,95.12,-102.5,4.73,-9.66,-11.95
3420,9.63,86.81,-115.5,4.47,-10.05,-9.36
3430,22.37,69.31,-139.19,3.46,-7.63,-10.54
3440,45.88,51.5,-164,1.78,-4.47,-13.43
3450,56.06,36.5,-175.31,2.92,-4.56,-11.86
3460,51.31,32.44,-168.5,2.92,-4.56,-11.86
3470,54.5,32,-155.75,1.58,-4.8,-11.42
3480,105,50.56,-156.69,1.06,-1.79,-11.06
3490,103.81,67.31,-141,1.15,-3.74,-11.72
3500,105.19,68.69,-106.19,2.89,-5.41,-11.67
3510,98.06,78.56,-88.75,2.89,-5.41,-11.67
3520,53.31,74.12,-96,2.51,-5.99,-6.81
3530,61.19,63.31,-118.69,1.32,-3.36,-6.65
3540,88.44,57.75,-140.5,0.5,-1.04,-6
3550,86.44,44,-142.25,0.72,-1.29,-6.48
3560,90.75,33.69,-127.44,0.72,-1.29,-6.48
3570,94,24.12,-107.81,0.87,-1.92,-6.64
3580,85.75,16.75,-93.94,1.35,-4.32,-4.03
3590,81.44,2.25,-86.56,1.7,-5.23,-5.2
3600,99.31,-32.88,-88.25,2.16,-6.29,-5.84
3610,93.69,-77.75,-97.19,2.16,-6.29,-5.84
3620,62.06,-137,-119.81,2.55,-7.03,-7.94
3630,65,-189.19,-158,1.52,-3.81,-12.93
3640,85.69,-234.5,-198.69,1.1,-0.2,-14.37
3650,96.25,-289.31,-229.44,-0.76,3.26,-23.53
3660,173.69,-230.87,-240.69,-0.76,3.26,-23.53
3670,241.5,-147.69,-221.81,-0.8,4.09,-25.89
3680,210.94,-69.31,-189.56,1.04,5.37,-18.17
3690,171.5,2.25,-164.94,1.6,5.03,-15.5
3700,146.62,35.81,-149.81,1.6,5.47,-12.96
3710,128.12,33.19,-150.25,1.6,5.47,-12.96
3720,128.81,10.38,-171.31,1.5,9.16,-11.27
3730,134.75,-29.31,-193.56,1.69,12.56,-12.64
3740,129,-72.44,-197,-1.2,14.77,-12.81
3750,106.56,-123.37,-184.37,-0.47,14.71,-18.7
3760,112,-145.37,-113.25,-0.47,14.71,-18.7
3770,129.94,-107.62,-21.75,1.77,11.45,-20.61
3780,67,-77.37,27.87,3.97,8.26,-15.45
3790,28.94,-61.19,41.25,5.17,8.7,-14.71
3800,32.75,-56.19,38.75,6.46,5.13,-18.26
3810,41.69,-74.06,44.69,6.46,5.13,-18.26
3820,29.25,-79.75,25.5,6.96,6.05,-19.17
3830,36.25,-52.25,-0.06,4.5,13.66,-20.17
3840,41.31,-24.94,21.06,4.94,12.16,-19.16
3850,11.75,-0.25,75,6.21,8.37,-15.18
3860,-27.31,19.94,116.81,6.21,8.37,-15.18
3870,-55.06,20.87,132,5.79,7.63,-14.54
3880,-85.62,5.81,138.44,6.66,6.47,-12.2
3890,-114.62,-18,147.12,6.66,6.47,-12.2
3900,-111.37,-53.69,156.19,8.66,5.21,-13.23
3910,-82.06,-88.81,170.12,9.37,4.61,-16.58
3920,-67.19,-100.62,184.62,10.6,2.32,-19.44
3930,-63.13,-78.5,173.5,10,3.87,-21.54
3940,-68.37,-30.31,158,9.57,5.18,-20.18
3950,-89.56,5.44,166.62,9.01,5.67,-17.72
3960,-118,16.37,188.12,10.14,3.85,-12.64
3970,-130.62,-7.06,212.25,10.93,2.78,-12.54
3980,-115.31,-52.75,231.06,12.4,2.03,-14.13
3990,-75.19,-107,252.19,13.47,3.65,-15.36
4000,22.56,-156.87,302.56,11.19,-3.63,-35.78
4010,89.69,-65.37,345.81,11.18,-8.81,-41.16
4020,-34,113.44,334.06,10.23,-11.82,-35.56
4030,-232.69,262.06,300.25,11.28,-14.51,-7.37
4040,-325.19,286.94,256.5,11.72,-12.02,0.59
4050,-194.56,225,228.19,13.45,-11.49,-0.74
4060,-50.75,111.25,202.25,14.77,-11.85,-5.11
4070,-23.62,-7.56,171.62,12.79,-8.95,-11.83
4080,13.25,-55.13,164.56,12.7,-9.67,-17.55
4090,51.75,-37.69,167,12.25,-10.68,-22.56
4100,30.31,17.69,173.94,11.42,-14.73,-23.71
4110,-4.94,90.37,184.87,11.84,-17.7,-21.94
4120,-23.62,165.31,174.31,11.73,-20.18,-19.26
4130,-52.5,217.69,142.56,10.13,-21.05,-15.25
4140,-70.75,243.56,86.81,12.73,-22.31,-8.16
4150,-88.31,219.37,-19.19,11.44,-19.78,-4.6
4160,-51.88,161.44,-109.19,10.18,-15.91,-3.94
4170,10.75,96.44,-162.62,6.84,-7.47,-7.46
4180,51.88,46,-161.56,6.78,-6.85,-10.1
4190,57.63,17.56,-133.62,6.93,-7.4,-11.85
4200,49.19,12.31,-114.81,7.02,-9.21,-13.83
4210,52.81,19.94,-109.69,6.95,-10.55,-15.54
4220,51.81,41.56,-124.06,6.39,-10.66,-15.78
4230,31.37,64.62,-150.75,5.39,-9.75,-14.79
4240,22.94,83.31,-172.19,3.61,-7.17,-11.87
4250,32,91.69,-186.69,2.62,-5.64,-11.07
4260,49.88,93,-190.31,1.82,-4.52,-10.79
4270,59.94,92.94,-183.75,0.96,-2.71,-9.52
4280,64.31,89.25,-172.81,0.27,-1.54,-10
4290,63.44,84.37,-154.56,0.71,-2.01,-6.35
4300,97.5,69.81,-139.31,-1.28,-1.15,-6.29
4310,155.69,73.12,-117.87,-1.11,-1.18,-8.56
4320,113.75,60,-87.87,-0.14,-2.85,-6.43
4330,94.69,39.56,-62.38,0.36,-6.07,-6.33
4340,93.87,24.31,-76.06,1.04,-8.6,-5.63
4350,69.19,15.81,-121.56,0.2,-7.96,-4.05
4360,85.19,-9.44,-173.06,-0.35,-5.13,-4.22
4370,116.75,-39.63,-208.62,-1.89,-1.83,-5.88
4380,111.62,-94.5,-205.25,-1.82,2.71,-7.09
4390,112.56,-158.19,-183.12,-1.35,4.41,-8.77
4400,167,-203.06,-157.19,-1.49,5.41,-11.78
4410,208.06,-254.31,-129.31,-2.73,6.87,-18.13
4420,188.12,-253.62,-89.75,-3.1,5.22,-20.55
4430,172.06,-160.25,-38,-0.29,2.13,-23.41
4440,81.44,-104.62,-21.94,2.17,0.67,-17.5
4450,-17.75,-83.87,-38.31,3.07,1.2,-14.28
4460,-8.5,-83.06,-68.62,3.35,2.54,-13.86
4470,45.75,-99.56,-104.75,2.49,4.88,-15.46
4480,73.69,-110.31,-125,1.18,8.85,-18.83
4490,54.81,-102.12,-125.12,0.4,10.13,-18.81
4500,2.62,-79.81,-106.75,0.59,10.97,-16.72
4510,-45.94,-61.63,-79.25,2.3,11.15,-13.27
4520,-87.62,-62,-51.81,2.58,11.03,-11.09
4530,-96.69,-97.56,-20.06,2.47,10.96,-9.74
4540,-33.13,-133.19,8.75,7.33,7.57,-11.72
4550,30.31,-152.37,-7.06,7.24,4.45,-19.28
4560,32.31,-127.37,-60.63,5.4,7.45,-19.98
4570,-1.56,-80.87,-84,4.32,9.95,-19.3
4580,-57.38,-32.5,-63,4.99,9.34,-13.43
4590,-124.56,-7.87,-38.25,5.76,8.65,-9.64
4600,-153.06,-8.88,-31.12,6.17,8.63,-7.18
4610,-121.94,-24.62,-41.44,5.44,9.56,-6.5
4620,-63.88,-71,-40.88,5.35,12.87,-8.35
4630,-16.94,-135.44,-22.44,5.34,13.62,-10.75
4640,7.62,-191.25,-0.13,5.01,13.72,-13.15
4650,13.56,-203,28,4.61,12.86,-19.29
4660,36.38,-155.75,59.63,5.62,11.86,-21.55
4670,23.25,-110.94,83.81,5.58,11.11,-22.01
4680,-15.06,-67.37,98.44,5.65,10.95,-18.51
4690,-36,-31.81,105.69,5.67,11.31,-16.37
4700,-39.06,-20.75,110.37,5.17,12.07,-14.94
4710,-28.75,-33.5,120.87,4.58,12.8,-14.61
4720,-11.56,-54.94,144.62,3.94,12.79,-16.9
4730,-1.25,-75,180.06,3.83,11.79,-18.95
4740,-3.94,-82.37,218.75,3.82,10.09,-21
4750,-24.81,-71.69,254.25,5.07,4.58,-23.24
4760,-64.19,-54.38,279.56,6.15,2.28,-22.74
4770,-92.81,-35.56,282.37,7.26,0.85,-21.67
4780,-85.19,-17.56,268.06,8.14,-0.05,-21.5
4790,-67.37,-3.37,250.12,9.76,-0.81,-22.38
4800,-67.19,2.31,235.12,10.1,-0.1,-22.55
4810,-55.5,9.31,230.31,10.13,0.08,-23.75
4820,-34.44,29.44,238.31,10.17,-1.34,-26.15
4830,-31.5,63.94,255.44,9.97,-3.15,-26.37
4840,-55,101.75,277.25,10.12,-5.33,-25.37
4850,-85.5,132.62,292.25,10.44,-7.47,-23.34
4860,-92.12,152.81,291.87,10.34,-10.57,-19.56
4870,-68.06,163.81,275.94,10.39,-11.38,-18.72
4880,-38.94,167.12,249.87,10.09,-11.78,-18.25
4890,-17.25,168.81,219.56,8.87,-11.61,-17.76
4900,-10.19,176.44,191.25,8.56,-11.26,-16.43
4910,-3.75,179.37,167.69,8.44,-11.13,-15.26
4920,10.19,175.25,147.25,7.91,-11.13,-14.11
4930,18.69,164,127.31,7.55,-11.37,-13.75
4940,25.62,148.44,106.81,7.53,-11.57,-13.7
4950,46.44,139.94,77.75,7.39,-11.79,-14.16
4960,63.56,140.56,42.06,6.41,-11.44,-14.41
4970,57.19,145.31,3.37,5.92,-10.47,-13.2
4980,51.44,149.06,-32.44,5.56,-9.42,-12.22
4990,53.31,146.31,-60.75,4.11,-7.7,-12.18
5000,32.94,133.06,-84.06,5.79,-7.78,-9.23
5010,7.75,108.69,-108.06,2.57,-5.02,-7.79
5020,81.12,104.56,-124.69,3.45,-4.92,-9.87
5030,94.31,94.19,-130.81,2.78,-3.96,-9.2
5040,41.56,70.25,-136.62,1.75,-3.79,-8.37
5050,39.19,60.38,-140.06,2.3,-4.14,-8.75
5060,37.56,52.69,-148.87,1.89,-4.47,-7.15
5070,36.81,29.81,-170.19,1.25,-2.95,-6.67
5080,74.37,20.44,-192.12,0.58,-1.37,-7.04
5090,110.56,8.5,-200.56,0.05,-0.09,-7.83
5100,120.62,-9.81,-193.37,-0.63,1.16,-9.07
5110,123.19,-24.5,-176.44,-0.52,0.77,-9.93
5120,123.37,-28.06,-161.94,-0.33,0.12,-10.71
5130,109.56,-24.12,-158.81,-0.65,-0.19,-9.43
5140,93.12,-21.06,-167.5,-1.07,0.35,-8.51
5150,84.12,-22.62,-180.87,-1.38,0.94,-8.03
5160,73.44,-26.31,-191.12,-1.71,1.74,-7.84
5170,58.31,-42.25,-194,-2.75,2.59,-6.52
5180,57.63,-78.12,-194.62,-2.54,3.74,-6.76
5190,96.62,-118.56,-186.62,-2.73,4.47,-7.9
5200,135.19,-157.19,-173.25,-1.98,4.56,-12.64
5210,162.81,-188.19,-166,-1.96,4.68,-15.11
5220,177.12,-200.25,-171,-1.64,5.13,-18.17
5230,181.25,-147.69,-184.87,-1.86,7.82,-20.64
5240,147.56,-97.69,-194,-2.41,9.49,-19.51
5250,90.62,-56,-187,-2.3,10.72,-17.57
5260,41.13,-32.38,-163.81,-1.6,11.59,-15.43
5270,12.75,-31.06,-136.69,-0.76,12.65,-12.41
5280,10.19,-45.94,-111.37,0,13.12,-12.11
5290,25.06,-71.94,-91.75,0.33,14.17,-12.73
5300,55.13,-88.81,-78.06,-0.16,16.66,-16.64
5310,74.19,-80.62,-56.5,-0.92,17.47,-17.56
5320,52.63,-56.31,-14.25,-1.86,17.26,-18.09
5330,-7.69,-23.69,51.5,-1.36,15.67,-16.97
5340,-98,-7.31,115.25,1.76,11.03,-9.58
5350,-153.44,-25.87,153.19,2.64,9.51,-7.02
5360,-134.25,-75.25,166,4.67,8.48,-6.97
5370,-78.06,-136.25,160.19,6.36,6.39,-13.17
5380,-23.75,-165.31,141.12,7.06,4.54,-18.28
5390,-5.31,-142.31,100.75,6.37,5.72,-20.18
5400,-40.44,-92.81,61.94,6.04,10.41,-16.07
5410,-67.87,-42.38,53.75,5.81,11.65,-13.47
5420,-80.06,-17.75,68.31,5.9,12.12,-11.1
5430,-96.56,-26.5,88.44,5.7,12.22,-8.89
5440,-99.44,-59.13,107.25,6.32,11.81,-7.51
5450,-76.44,-100.5,122.31,6.52,12.23,-8.51
5460,-55.13,-143.81,131.12,5.86,13.83,-9.45
5470,-27.12,-177.12,147.81,4.61,15.46,-13.64
5480,9.38,-191.37,184.69,4.16,14.79,-16.29
5490,17.25,-196.75,232.94,3.74,13.55,-18.29
5500,1,-196.25,283.5,3.77,11.59,-19.83
5510,-13.63,-188.12,328.5,4.86,6.13,-22.41
5520,-28.44,-174.25,354.19,4.8,4.29,-22.65
5530,-37,-157.44,361.44,4.68,3.34,-22.49
5540,-29.5,-143.19,363.37,3.87,1.79,-23.14
5550,-12.25,-134.87,373.87,3.5,1.03,-23.62
5560,8.81,-132.06,396.75,3.33,-0.12,-24.36
5570,45.13,-132.75,434.12,3.36,-2.1,-25.77
5580,95,-126.69,477.06,3.54,-8.09,-29.79
5590,141.94,-99.37,508.5,3.22,-11.2,-31.46
5600,173.12,-49.75,519.06,3.06,-14.55,-32.9
5610,167.31,6.44,509.44,2.81,-21.55,-33.21
5620,125.75,64.31,476.44,4.15,-23.87,-32.09
5630,66.31,123.5,407.69,4.92,-24.36,-31.4
5640,-6.06,176.31,303.31,2.53,-21.18,-25.09
5650,-54.5,228.94,193.25,2.74,-19.05,-20.55
5660,-12.44,283.81,93.06,2.35,-16.4,-16.81
5670,-12.44,283.81,93.06,1.44,-13.24,-13.92
5680,62.69,310.06,9.5,0.46,-8.4,-10.15
5690,194.06,284.12,-61.81,0.81,-7.44,-9.59
5700,232.56,236.19,-65.25,0.71,-7.37,-9.89
5710,246.62,178.69,-61.38,1.43,-9.6,-15.89
5720,246.62,178.69,-61.38,2.32,-9.98,-14.54
5730,96.5,89.94,-66.25,1.69,-9.37,-12.83
5740,119.31,90.37,-93.81,1.75,-9.82,-13.75
5750,190.75,118.37,-129.44,0.55,-8.81,-14.42
5760,196,139.94,-168.37,-0.29,-7.56,-13.21
5770,196,139.94,-168.37,-0.65,-6.85,-12.82
5780,183.56,156.25,-193.31,-0.76,-5.63,-11.32
5790,136.62,162.06,-204.5,-1.39,-5.28,-11.42
5800,101.94,157.56,-203.19,1.04,-6.03,-10.94
5810,40.75,146.75,-204.62,-1.58,-3.62,-6.01
5820,40.75,146.75,-204.62,-1.22,-3.95,-7.88
5830,86.5,148.56,-201.31,-0.52,-3.74,-7.87
5840,93.94,170.69,-187.5,-0.97,-3.69,-7.2
5850,54.63,143.62,-184.69,1.15,-4.71,-5.41
5860,23.44,70.37,-187,0.78,-5.28,-4.89
5870,23.44,70.37,-187,-0.42,-4.7,-4.64
5880,13.13,13,-205.06,-0.36,-2.25,-6.08
5890,131,-21.25,-245.12,-0.75,-1.74,-7.51
5900,152.75,-44.94,-252.25,-0.99,-0.92,-9.28
5910,146.31,-58.69,-255.25,-0.67,-0.67,-8.23
5920,146.31,-58.69,-255.25,-1.12,-0.05,-12.35
5930,156.37,-63.56,-259.37,-0.12,-0.17,-11.68
5940,62.31,-68.37,-240.62,-0.14,-0.19,-8.57
5950,25.94,-91.81,-238.5,1.06,-0.89,-8.33
5960,110,-94.56,-253,1.11,-0.09,-10.21
5970,110,-94.56,-253,0.15,1.77,-11.39
5980,175.56,-106.87,-285.12,-0.69,3.43,-12.98
5990,172.62,-145.06,-328.44,-2.31,5.83,-15.98
6000,103.94,-128.12,-322.44,-2.25,6.55,-15.02
6010,22.37,-109.37,-301.31,-1.37,6.9,-12.43
6020,22.37,-109.37,-301.31,-1.37,6.9,-12.43
6030,-7.81,-119.19,-283.06,1.5,9.71,-8.21
6040,216.94,-215.75,-305.12,-1.45,13.52,-18.77
6050,314.12,-167.75,-297.69,-1.92,14.8,-25.88
6060,291.31,-98.56,-261.5,-2.93,18.8,-28.44
6070,291.31,-98.56,-261.5,-2.93,18.8,-28.44
6080,180.5,-9.19,-195.06,-2.74,18.6,-24.53
6090,-34.19,98,-28.06,3.32,10.26,-5.65
6100,-32,61.81,5,4.29,8.27,-5.62
6110,57.19,-7.19,4.37,5.38,7.9,-8.49
6120,57.19,-7.19,4.37,5.38,7.9,-8.49
6130,121.25,-78.94,-14.25,4.81,9.83,-16.35
6140,149.62,-103.37,-28.75,3.43,10.55,-22.38
6150,127.44,-75.75,-41.75,2.25,13.9,-18.43
6160,55.56,-11.75,-58.44,1.65,16.5,-9.92
6170,-6.12,30.12,-44.06,1.65,16.5,-9.92
6180,-12.69,32.5,-1.19,1.93,15.75,-9.58
6190,19.37,15.06,45.81,3.04,13.76,-11.38
6200,38.81,-17.25,91.19,3.31,12.68,-12.07
6210,43.13,-45.25,126.31,3.89,11.52,-12.02
6220,30,-65.56,154.25,3.89,11.52,-12.02
6230,25.81,-86.56,173.81,4.2,10.43,-13.23
6240,33.63,-104.62,182.69,4.51,8.48,-18.82
6250,31.19,-88.87,192.19,4.53,7.74,-17.46
6260,5.62,-64.06,205.62,5.95,5.78,-15.63
6270,-20.12,-51.44,215.37,5.95,5.78,-15.63
6280,-34.5,-56.81,232.19,6.4,4.84,-15.21
6290,-53.06,-80,232.75,6.88,3.96,-17.76
6300,-47.69,-101.37,239.87,7.51,0.97,-21.77
6310,-42.13,-111.56,255.06,7.42,-0.28,-22.55
6320,-44.56,-93.12,262.87,7.42,-0.28,-22.55
6330,-51.81,-58.63,265.87,7.13,-1.32,-21.79
6340,-65.62,-25,262,7.91,-2.38,-15.46
6350,-80.56,-7.69,252.19,7.76,-1.73,-16.31
6360,-79.5,-16.37,235,6.77,0.96,-18.78
6370,-63.38,-32.69,218.5,6.77,0.96,-18.78
6380,-63.88,-34.63,210.94,6.21,1.71,-19.37
6390,-69.56,-21.56,224.87,5.82,0.34,-18.66
6400,-83.75,-10.13,253.19,8.16,-6.26,-20.04
6410,-91.75,-8,286.81,9.66,-8.85,-20.23
6420,-94.5,-8.56,304.87,9.66,-8.85,-20.23
6430,-92.94,0.62,299.37,10.96,-10.93,-20.26
6440,-78.56,15.25,273.37,12.4,-11.32,-21.22
6450,-62.13,35.38,228.44,12.11,-9.81,-20.91
6460,-49.5,61.63,179.06,11.77,-8.1,-19.2
6470,-52.63,88.56,142.5,11.77,-8.1,-19.2
6480,-67.75,99.56,131.69,12.32,-9.7,-17.44
6490,-77.37,92.12,133.12,12.76,-11.33,-18.47
6500,-70.87,91.06,123.37,11.47,-11.51,-17.81
6510,-57.63,101.25,102.31,11.08,-11.46,-16.55
6520,-45.69,118.62,76.75,11.08,-11.46,-16.55
6530,-32.38,135,53.63,10.8,-11.46,-15.48
6540,-15.31,143.69,28.25,9.31,-9.67,-13.97
6550,0.31,143.37,-3.12,8.85,-8.72,-13.28
6560,6.12,138.37,-34.06,8.59,-7.75,-12.26
6570,-0.94,131.19,-59.88,8.59,-7.75,-12.26
6580,-5.31,120.06,-82.06,7.71,-5.77,-11.22
6590,-4.44,103.44,-99.87,6.83,-3.74,-12.32
6600,1.37,85.06,-114.06,6.03,-3.51,-14.61
6610,10.69,72.31,-122.06,5.98,-4.09,-15.2
6620,7.94,68.5,-122.87,5.98,-4.09,-15.2
6630,1.31,74,-124.12,6.11,-4.83,-15.36
6640,-5.25,83.31,-131.12,5.57,-5.51,-14.28
6650,-16,90.44,-145.87,5.22,-5.15,-14.2
6660,-27.87,95.19,-167.12,4.78,-4.94,-13.61
6670,-53.31,94.37,-184.06,4.78,-4.94,-13.61
6680,-99.31,88,-193.69,5.84,-4.46,-10.03
6690,-124.94,72.62,-197.06,4.65,-1.7,-12.53
6700,-103.37,42,-201.69,4.6,-0.44,-14.1
6710,-58.94,25.06,-191.81,4.6,-0.44,-14.1
6720,-28.5,16.69,-152.37,5.24,-4.25,-18.93
6730,-3.12,28.25,-111.19,6.05,-7.03,-19.63
6740,-1.94,61.88,-97.37,6.09,-9.16,-19.16
6750,1,100.25,-112.19,4.84,-10.27,-16.09
6760,5.25,135.44,-152.87,3.34,-7.91,-13.26
6770,25.94,154.94,-198.75,1.99,-5.41,-11.62
6780,57.06,150.37,-225.37,1.01,-3.23,-10.85
6790,80.19,131.37,-235.31,-0.86,0.84,-10.87
6800,100.19,118.5,-235.75,-1.33,2.48,-11.02
6810,112.81,111.37,-224.94,-1.67,3.88,-10.69
6820,120.56,106.69,-205.94,-2.08,6.06,-9.54
6830,139.31,103.94,-181,-1.88,6.38,-9.41
6840,163.44,102.06,-155.31,-1.73,6.64,-9.39
6850,180.62,101.5,-133.81,-1.35,7.21,-8.91
6860,186.5,100.06,-115.19,-1.19,7.14,-8.24
6870,186.75,91.19,-101.06,-1.25,8.3,-8.51
6880,196,84.37,-91.81,-1.21,9.04,-9.79
6890,173.69,83.56,-73.69,-1.01,7.81,-9.5
6900,111.31,78.5,-46,0.09,4.41,-7.96
6910,53.69,58.75,-14.88,2.01,0.15,-6.27
6920,23.19,15.06,-6.31,4.66,-5.68,-3.84
6930,46.25,-48.75,-39.63,4.27,-4.69,-5.51
6940,110.87,-100.5,-113.44,2.28,0.18,-8.51
6950,197.87,-131.25,-185,0.05,5.81,-13.17
6960,235,-143.81,-210.44,-2.54,14.69,-18.79
6970,187.5,-118.62,-187.12,-2.42,15.73,-18.71
6980,139,-59,-128.25,-0.99,13.86,-16.52
6990,93.31,-19.69,-62.81,2.35,6.97,-10.48
7000,62.13,-21.94,-27.5,3.37,4.14,-9.16
7010,63.19,-52.19,-27.56,4.24,2.03,-9.29
7020,89.44,-89.25,-52.5,4.68,1,-10.35
7030,127.75,-118.94,-95.5,3.64,4.65,-15.02
7040,161.25,-128.31,-141.94,2.96,8,-16.79
7050,158.5,-127.25,-165.75,1.99,10.54,-18.15
7060,138.19,-120.75,-159,3.97,10.71,-21.35
7070,119.87,-100.19,-135.31,4.86,8.99,-20.62
7080,67.94,-77.87,-132.37,4.97,9.06,-18.28
7090,46.13,-50.94,-151.31,4.44,12.04,-14.3
7100,46.69,-38.69,-164.87,4.14,13.64,-13.38
7110,48.38,-51.31,-162.62,4.32,14.25,-13.92
7120,53.38,-71.06,-144.31,4.85,14.04,-15.2
7130,56.75,-80.5,-124.5,5.67,14.02,-17.83
7140,56.13,-71,-110.31,5.9,13.97,-17.74
7150,41.81,-55.75,-95.37,6.47,13.34,-16.8
7160,25.37,-48.5,-79.37,10.08,12.35,-17.49
7170,22.37,-61.5,-87.5,8.1,16.82,-22.13
7180,50.75,-71.25,-137.81,4.8,22.1,-26.62
7190,50.38,-28.44,-159.75,2.23,25.93,-26.89
7200,-16.25,28.12,-90,4.74,20.1,-17.82
7210,-72.12,64.81,20.37,6.44,14.38,-14.5
7220,-76.12,73,77.94,7.46,10.92,-13.18
7230,-52.5,65.56,78.94,7.75,9.63,-13.58
7240,-32.44,52.88,55.56,7,11.03,-14.7
7250,-24.12,38.88,35.44,6.24,12.26,-16.33
7260,-28.31,32.06,31.06,5.46,13.22,-17.7
7270,-36.38,39.56,35.13,3.34,15.39,-19.76
7280,-38.13,59.31,45.94,2.21,16.24,-20.33
7290,-45.94,84,70.25,1.56,16.09,-19.83
7300,-61.5,103.12,107.69,1.53,12.99,-18.41
7310,-71.5,112.44,139.5,1.45,11.76,-18.19
7320,-73.87,116.94,157.31,1.19,10.97,-18.23
7330,-71.19,124.5,166.62,0.41,10.36,-18
7340,-66.87,136.5,173.44,-0.11,10.35,-17.89
7350,-64.25,149.37,181.94,-0.44,10.19,-17.49
7360,-68.5,159.87,193.37,-0.99,10.14,-16.79
7370,-75,166,208.31,-2.1,9.18,-15.1
7380,-80.06,168.81,228.56,-2.34,8.13,-14.21
7390,-84.69,166.87,251.44,-2.38,6.8,-13.56
7400,-86.06,161.5,271.5,-2.23,4.07,-12.37
7410,-87.31,153.56,284.12,-2.06,3.23,-11.75
7420,-86.31,140.69,287.87,-2.12,2.85,-11.57
7430,-79.81,122.94,287.75,-2.1,2.24,-12.3
7440,-75.44,106.5,288.12,-2.82,1.33,-14.23
7450,-82.44,99.5,288,-3.13,0.91,-14.21
7460,-95.94,102.06,291.31,-3.48,0.43,-13.36
7470,-107.44,105.12,296.5,-4.26,-0.52,-11.34
7480,-107.25,107.31,299.69,-5.07,-0.33,-10.54
7490,-101.25,107.19,300.44,-5.49,-0.26,-9.09
7500,-94.31,98.5,304.81,-6.28,-0.29,-8.81
7510,-86.62,82.69,314.94,-7.05,-2,-9.22
7520,-103.19,71.31,331.5,-6.38,-4.35,-8.76
7530,-136.62,56,346.5,-5.72,-7.42,-8.65
7540,-174.06,34.88,345.12,-2.97,-12.62,-7.81
7550,-227.69,16.56,314.69,-2.52,-13.12,-5.88
7560,-262.75,-4.06,255.69,-2.33,-12.36,-4.12
7570,-257.87,-36,186.62,-2.89,-8.96,-0.85
7580,-284.06,-119.56,127.44,-3.65,-7.16,-0.25
7590,-294.19,-226.06,105.12,-3.37,-6.94,-4.74
7600,-233.19,-310.44,115.06,-3.56,-7.02,-10.79
7610,-196.44,-368.31,140.94,-1.89,-7.66,-13.19
7620,-185.44,-424.44,192.5,-1.93,-11.85,-19.23
7630,-152.25,-371.12,212.12,0.45,-15.62,-23.23
7640,-179.81,-289.5,201.31,2.91,-18.28,-16.38
7650,-225.94,-240,176.19,3.54,-19.06,-14.66
7660,-194.75,-230.37,154.75,4.41,-19.86,-14.76
7670,-137.44,-258.31,146.19,4.78,-21.26,-16.97
7680,-68.94,-288.56,136.69,8.05,-24.08,-24.93
7690,-35.63,-289,105,8.96,-25.12,-26.98
7700,-50.75,-268,67.12,10.31,-25.34,-27.44
7710,-73.5,-220.12,9.31,11.03,-23.27,-24.28
7720,-89.25,-174.56,-50.38,11.77,-22.57,-21.43
7730,-77.25,-147.87,-91.25,12.43,-22.82,-21.25
7740,-45.94,-151.37,-129.37,12.3,-21.93,-22.76
7750,-19.75,-149.81,-179.12,11.94,-18.62,-24.18
7760,-1.56,-137.62,-222.75,10.88,-16.16,-24.61
7770,22,-129,-257.81,10.4,-14.98,-26.24
7780,47.94,-116.75,-311.12,9.63,-11.11,-28.8
7790,47.94,-116.75,-311.12,8.31,-7.95,-30.98
7800,86.44,-90,-343.94,6.87,-4.63,-33.03
7810,117.19,-48.38,-363.37,3.84,2.28,-34.69
7820,128.06,7.25,-360.19,3.22,3.82,-34.23
7830,97.81,128.12,-296.31,2.8,4.49,-32.97
7840,97.81,128.12,-296.31,2.21,5.09,-29.83
7850,81.44,175.19,-262.06,1.39,3.64,-25.21
7860,77.25,200.81,-228.87,1.18,2.64,-23.13
7870,76.06,209.56,-212.5,1.21,2.44,-21.61
7880,142.81,207.5,-237.69,-0.41,5.86,-22.5
7890,142.81,207.5,-237.69,-1.56,8.46,-23.86
7900,179.94,215.19,-252.81,-2.67,11.07,-24.72
7910,206.19,238.81,-250.75,-3.5,13.03,-25.43
7920,163.31,305.12,-185.69,-4.62,13.77,-23.73
7930,96.19,326.75,-131.87,-4.84,13.08,-20.02
7940,96.19,326.75,-131.87,-3.28,10.93,-16.48
7950,10.31,302.56,-66.87,-1.73,7.05,-11.21
7960,-6.56,268.06,-70.12,-1.26,6.37,-9.81
7970,-12.56,235.69,-80.94,-0.91,6.25,-9.81
7980,-30.37,213.25,-91.56,-0.92,6.97,-9.9
7990,-30.37,213.25,-91.56,-1.45,9,-9.53
8000,-45.5,203.31,-91.81,-1.39,9.79,-9.69
8010,-69.5,211.12,-69.81,-1.32,10.5,-9.84
8020,-87.69,216.44,-48.44,-2.46,10.82,-8.61
8030,-99.56,181,-1.81,-1.62,11.42,-5.55
8040,-103.37,127.56,50.38,-1.73,10.63,-4.94
8050,-118.31,82.69,91.75,-1.49,8.82,-5.19
8060,-127.44,45.31,127,-0.89,6.73,-7.27
8070,-146,15.75,145.44,-0.5,5.48,-6.01
8080,-148.19,-8.94,152.62,-0.57,4.1,-7.66
8090,-175.5,-24.25,160.06,-1.28,4.39,-8.17
8100,-185.31,-45.81,180.06,-1.18,3.45,-8.64
8110,-199.06,-76.06,197.75,-1.29,2.32,-10.04
8120,-220.69,-104.25,212.94,-1.14,-0.02,-11.44
8130,-217.94,-132.25,228.87,-1.02,-1.65,-12.08
8140,-201.31,-177.19,243.94,-1.12,-3.1,-13.15
8150,-197.5,-215.75,262.37,-1.57,-3.87,-14.19
8160,-174.5,-168.69,265.06,-1.17,-9.06,-20.26
8170,-198.69,-95.19,240.25,0.76,-11.8,-21.48
8180,-263.94,-54.06,199.69,0.65,-11.91,-17.07
8190,-261.31,-52.44,164.37,0.76,-10.19,-9.49
8200,-224.06,-91,141.37,0.67,-8.74,-8.95
8210,-189.62,-143.81,137.06,0.14,-7.44,-10.33
8220,-176.25,-177.12,150.81,-0.21,-7.15,-13.62
8230,-199.69,-179.87,168.06,0.64,-9.6,-18.59
8240,-238.94,-168,177.69,1,-11.2,-18.39
8250,-254,-161.12,180.37,1.78,-13.07,-16.89
8260,-216.5,-156.44,170.87,4.76,-16.91,-16.07
8270,-148.94,-143.62,133.81,6.02,-17.82,-17.77
8280,-95.5,-115.62,81.62,6.27,-17.65,-19.69
8290,-71.69,-72.06,44.63,6.09,-15.88,-20.08
8300,-90.5,-31.87,36.5,5.65,-16.78,-18.7
8310,-147.69,-9.94,49.31,5.38,-17.03,-15.11
8320,-173.69,-29.56,88.5,5.64,-17.87,-10.37
8330,-143.06,-90,23.94,11.9,-27.51,-9.03
8340,-92.62,-158.19,-90.44,11.9,-27.97,-9.03
8350,7.12,-204.94,-215.37,10.45,-26.77,-13.03
8360,87.19,-202.12,-315.62,5.66,-16.65,-23.07
8370,106.44,-178.44,-353.25,5.59,-15.15,-25.61
8380,81.56,-160,-372.94,5.88,-16.23,-28.05
8390,55.63,-128.69,-411.44,5.77,-17.5,-29.42
8400,59.63,-98.94,-476.56,5.59,-17.37,-30.5
8410,116.37,-74.69,-579.12,3.54,-12.43,-32.8
8420,181.69,-48.19,-672.5,0.92,-5.38,-35.66
8430,209.31,-4.25,-715.37,-4.46,11.34,-42.08
8440,168.12,68.25,-682.75,-4.9,17.28,-43.52
8450,77,161.69,-590.69,-5.27,20.53,-40.87
8460,21.94,252.25,-441.06,-5.69,22.17,-34.99
8470,20.62,300.5,-271.25,-0.38,16.06,-23.68
8480,31.81,289.87,-184.69,1.7,10.62,-20.71
8490,62.75,265.5,-167.62,2.78,7.22,-20.25
8500,92.62,259.37,-186.06,1.58,6.19,-24.08
8510,86.19,271.37,-209.31,0.04,8.51,-24.82
8520,47.88,289.06,-207.5,-1.28,10.76,-24.13
8530,47.88,289.06,-207.5,-1.28,10.76,-24.13
8540,-21.94,304.75,-143.75,-2.46,11.1,-18.76
8550,-29.25,308.87,-109.12,-2.42,10.3,-17.61
8560,-33.94,315.06,-80.31,-2.4,9.44,-16.16
8570,-36.63,317.12,-58.56,-2.34,7.56,-11.99
8580,-36.63,317.12,-58.56,-1.65,6.63,-9.88
8590,-34.69,306.5,-44.81,-1.07,6.17,-8.19
8600,-8,255.31,-46.81,-0.67,6.3,-8.05
8610,-2.12,241.69,-56.63,-0.47,6.83,-8.67
8620,-11.94,240.87,-66.37,-0.47,7.83,-8.61
8630,-11.94,240.87,-66.37,-0.38,8.73,-8.7
8640,-21.75,257.31,-75.94,-3.33,11.46,-5.81
8650,-58,231.19,-42.69,-1.68,12.38,-2.89
8660,-73.75,176.5,-5.25,-2.3,13.05,-0.36
8670,-66.37,122.87,36.06,-1.75,12.54,-0.65
8680,-66.37,122.87,36.06,-1.54,11.77,-1.82
8690,-64.81,75.44,75,-1.24,11.18,-2.87
8700,-86.31,25.25,137.06,-0.99,10.57,-4.42
8710,-83.19,1.94,162.44,-0.31,8.06,-4.01
8720,-87.56,-16.25,179.12,-0.51,7.33,-5.99
8730,-87.56,-16.25,179.12,-0.23,6.74,-4.88
8740,-112.31,-32.19,200.44,0.6,2.66,-5.98
8750,-140.37,-78.81,227.94,1.04,0.88,-4.99
8760,-126.75,-103.75,224.62,1.46,-0.69,-6.06
8770,-123.19,-115.75,211.31,2.08,-1.67,-8.95
8780,-123.19,-115.75,211.31,1.83,-1.13,-8.97
8790,-124.87,-120.25,197.69,1.54,-0.57,-10.1
8800,-93.5,-113.56,192.25,0.75,0.46,-10.83
8810,-92.37,-104.94,209.56,-0.45,1.66,-11.23
8820,-106,-105.69,240.69,-0.94,0.66,-10.61
8830,-106,-105.69,240.69,-0.94,0.66,-10.61
8840,-119.81,-116.5,271.56,-0.92,-1.61,-10.51
8850,-165,-171.69,303.75,1.75,-11.99,-10.65
8860,-176.5,-217.87,290.87,2.46,-13.57,-8.55
8870,-143.69,-259.94,264.44,2.23,-14.15,-7.78
8880,-143.69,-259.94,264.44,2.23,-14.15,-7.78
8890,-87.56,-246.56,188.25,4.4,-15.95,-15.27
8900,-113.94,-193.75,78.06,3.14,-9.96,-14.34
8910,-124.12,-196.81,84.87,4.52,-11.65,-11.67
8920,-111.81,-220.56,91.69,5.6,-13.92,-11.95
8930,-111.81,-220.56,91.69,5.6,-13.92,-11.95
8940,-76.31,-242.31,82,6.63,-15.76,-13.73
8950,-57.19,-249.12,54.56,9.1,-17.68,-18.03
8960,-64.62,-237.12,13.25,8.89,-16.71,-17.81
8970,-75.94,-217.81,-35.19,8.63,-13.41,-16.21
8980,-78,-206.56,-69.44,8.63,-13.41,-16.21
8990,-78.5,-208.25,-86,9.05,-12.57,-18.38
9000,-67.56,-199.31,-105.19,9.11,-9.96,-20.61
9010,-41.63,-185.5,-104.31,10.21,-10.57,-22.62
9020,-25.44,-162.12,-95.87,11.04,-12.4,-22.59
9030,-20.44,-129,-89.37,11.04,-12.4,-22.59
9040,-31.31,-102.31,-100.19,12.01,-14.32,-20.32
9050,-21.69,-94.87,-135.94,11.87,-12.61,-18.2
9060,-2.5,-101.31,-186.44,10.87,-9.14,-18.69
9070,7.75,-109.69,-227.44,9.91,-5.82,-20.02
9080,21.56,-114.25,-240.31,9.91,-5.82,-20.02
9090,32.13,-111,-226.94,9.92,-2.8,-24.04
9100,38,-94.75,-203.25,10.95,-4.67,-27.34
9110,46.69,-61,-185.5,11.35,-5.96,-28.19
9120,58.13,-13.13,-188.87,10.22,-4.52,-25.76
9130,61,34.56,-208.25,10.22,-4.52,-25.76
9140,59.56,64.37,-227.37,9.4,-2.56,-23.54
9150,66.56,71.87,-237.19,6.19,3.99,-24.88
9160,69.25,75.31,-229.44,6.22,3.84,-25.15
9170,54.5,88.5,-200.19,6.58,2.72,-24.6
9180,39.63,110.31,-169.56,6.58,2.72,-24.6
9190,36.25,130.44,-152.56,6.94,1.23,-23.67
9200,45.5,147.69,-154,6.49,-0.18,-22.71
9210,51.31,163,-168.69,5.28,0.5,-22.63
9220,50.88,178.12,-186.06,2.83,3.69,-22.27
9230,45.06,184.69,-200.25,2.83,3.69,-22.27
9240,44.13,183.06,-208.12,1.34,6.31,-23.27
9250,50.25,187.06,-199.75,-1.74,11.5,-27.33
9260,43.38,206.87,-177.87,-2.33,11.74,-26.86
9270,32.88,245.31,-141.94,-2.36,10.93,-24.67
9280,14.44,288.87,-97.12,-2.36,10.93,-24.67
9290,-6.62,320.5,-60.94,-1.99,9.09,-21.25
9300,-22.69,329.19,-47.31,-1.27,5.68,-11.66
9310,-33.19,316.56,-54.13,-1.24,6.43,-9.85
9320,-38.06,291.69,-65.06,-1.95,8.1,-9.98
9330,-37.63,270.5,-69.31,-1.95,8.1,-9.98
9340,-54.13,248.81,-62.19,-1.79,8.92,-9.59
9350,-71.81,234.81,-46.44,-1.61,9.55,-9.03
9360,-84.25,224.37,-21,-1.73,8.6,-7.21
9370,-96.81,216.44,6.5,-0.85,8.03,-5.35
9380,-99.12,191.25,38.63,-0.85,8.03,-5.35
9390,-103.06,152.44,68.06,-0.72,7.32,-4.26
9400,-99.56,120.12,92.62,0.46,4.07,-4.62
9410,-95.5,99.81,110.19,0.76,3.47,-4.12
9420,-99,85.19,119.75,0.69,2.99,-4.56
9430,-106.94,68.62,127.06,0.69,2.99,-4.56
9440,-114.44,44.31,137.94,1.68,1.26,-2.14
9450,-103.12,13.69,137.31,0.48,2.12,-5.31
9460,-123.37,0.19,144.12,1.36,-0.19,-5.38
9470,-134.62,-11.81,165.75,1.47,-0.9,-4.26
9480,-148.81,-28.56,178.31,1.47,-0.9,-4.26
9490,-139,-45.25,186,1.73,-1.92,-4.68
9500,-124.37,-57.94,186,2.1,-4.19,-6.61
9510,-129.37,-65.44,180.94,2.43,-4.97,-4.91
9520,-146.44,-74.44,175.5,2.43,-4.97,-4.91
9530,-151,-98.19,165.5,2.59,-6.17,-4.26
9540,-145.37,-126.94,147.94,2.94,-5.71,-4.39
9550,-127.75,-152.81,138.56,2.34,-5.08,-5.2
9560,-119.75,-175.62,142.37,2.26,-5.29,-8.19
9570,-126.5,-186.5,153.12,3.21,-6.04,-8.63
9580,-119.44,-204.44,173.25,3.92,-8.22,-10.12
9590,-129.12,-238.81,188.06,4.3,-9.88,-9.84
9600,-135.19,-275.5,195.31,4.46,-11.91,-9.21
9610,-118.56,-272.87,165.56,7.26,-17.96,-13.68
9620,-112.75,-230.44,88.5,9.07,-18.82,-14.8
9630,-123.56,-199.31,5.31,8.33,-16.78,-12.68
9640,-96.12,-191,-46,6.77,-10.73,-10.13
9650,-57.75,-209.56,-55.56,6.49,-9.54,-11.49
9660,-31.06,-228.44,-47.19,6.54,-9.68,-13.71
9670,-17.81,-233,-37.75,7.27,-11.45,-15.5
9680,-3.5,-224.06,-49,10.17,-16.4,-18.04
9690,9.19,-205.12,-91.5,10.39,-16.32,-18.73
9700,9.56,-193.56,-134.94,10.43,-15.25,-19.02
9710,-2.19,-197.5,-161.37,11.31,-14.75,-20.89
9720,-13,-200.69,-185.37,12.02,-14.46,-21.11
9730,-8.25,-204.37,-211.19,12.72,-15.67,-23.93
9740,10.88,-176.87,-264.87,11.2,-9.52,-27.64
9750,47.69,-120.56,-306.81,9.72,-4.76,-28.61
9760,60.5,-59.44,-308.12,8.85,-0.56,-27.35
9770,55.38,-15.13,-275.37,8.45,1.94,-25.02
9780,34.63,7.75,-229.44,9.68,1.56,-21.24
9790,24.25,10.13,-194.62,10.75,0.13,-18.93
9800,48.13,-6.25,-180.31,11.89,-1.23,-19.68
9810,71.62,-15.31,-185,11.45,-0.24,-25.75
9820,80,5.06,-192.19,10.7,0.82,-27.85
9830,68.94,49.31,-191.69,9.59,2.07,-28.42
9840,47.63,99.56,-176.87,8.85,3.11,-27.24
9850,33.06,136.37,-151.81,8.23,2.36,-22.89
9860,34.44,153.69,-131.62,8.37,0.75,-21.55
9870,43.75,160.19,-130.31,8.41,-0.39,-20.66
9880,60.31,163.81,-145.94,6.78,1.45,-19.87
9890,67.62,165.75,-161.87,5.78,3.65,-20.31
9900,55.69,168.19,-166.44,4.92,6.03,-19.53
9910,46.75,167.94,-156.94,4.07,7.83,-19.41
9920,32.38,170.19,-134.44,2.39,9.97,-19.74
9930,9,175.06,-99.87,2.25,9.69,-19.35
9940,-14.56,179.06,-67,2.51,8.67,-18.32
9950,-25.62,181.56,-48.69,2.34,6.98,-16.1
9960,-24.37,185.06,-43.06,2.11,7.22,-15.27
9970,-22.81,189.94,-40.31,1.84,7.72,-14.36
9980,-23.62,193.19,-37.69,1.39,8.89,-12.03
9990,-24.19,192.94,-37.31,1.19,9.94,-11.13
10000,-27,189.94,-35.31,1.21,10.62,-10.76
