timestamp,gyrox,gyroy,gyroz,accx,accy,accz
10,-144.69,12.06,254.12,0,0,0
20,-178.62,-1.5,204.19,0,0,0
30,-211.62,-18,163,0,0,0
40,-234.75,-26.75,136.75,-5.39,-6.27,-11.42
50,-246,-28.69,122.56,-5.77,-6.21,-11.1
60,-248.5,-31.69,116.37,-6.08,-6.95,-9.93
70,-245.12,-38.31,112.69,-5.5,-7.55,-9.24
80,-238.12,-43.56,96.62,-4.73,-8.29,-8.07
90,-225.06,-57.31,70.62,-4.27,-9.45,-5.48
100,-209.44,-77.25,55.81,-4.89,-8.85,-5.21
110,-189.75,-122.12,51.44,-3.16,-8.54,-4.96
120,-179.12,-182.56,32.63,-5.52,-8.48,-7.68
130,-190.87,-236.44,59.31,-7.59,-8.75,-8.6
140,-205.62,-296.37,119.87,-4.79,-10.62,-8.04
150,-198.94,-284.37,127.25,-3.37,-12.97,-9.25
160,-204.12,-273.56,120.75,-2.78,-16.55,-10.13
170,-218.75,-280.56,104.69,-2.88,-17.75,-10.62
180,-233.12,-296.94,83.69,-3.42,-18.54,-11.5
190,-234.69,-302.94,58.38,-2.92,-20.63,-14.85
200,-238.69,-292.56,15.19,-2.69,-21.61,-15.98
210,-254.87,-283.06,-42.44,-3.2,-21.82,-15.85
220,-241.75,-283.87,-105.81,-2.86,-21.63,-14.91
230,-165.56,-276,-180.31,-1.13,-19.85,-14.33
240,-36.56,-250.81,-259.25,-1.05,-18.49,-15.03
250,98.12,-214.56,-331.37,-0.92,-16.84,-16.38
260,189.69,-176.81,-382.5,-2.03,-9.88,-17.67
270,223.69,-162.12,-391.81,-2.84,-6.94,-18.1
280,233.56,-152.87,-365.12,-3.28,-4.72,-17.41
290,241.62,-141.56,-317.81,-3.69,-4.03,-18.44
300,208.31,-122.5,-277.56,-1.53,-4.58,-19.47
310,171.25,-103.94,-257.69,-0.78,-4.84,-17.99
320,164.37,-86.19,-254.56,-0.43,-5.24,-17.4
330,175.19,-72.12,-266.12,0.89,-4.95,-15.63
340,196.19,-68.37,-287.5,0.7,-4.62,-15.28
350,225.44,-70.19,-309.06,0.52,-4.07,-14.83
360,262.06,-76.5,-323.25,-0.17,-2.99,-15.66
370,282.81,-84.5,-331.75,-0.09,-2.89,-16.92
380,265.56,-92.25,-336.44,-0.3,-2.66,-18.21
390,229.81,-89.87,-338.5,-0.24,-2.17,-18.53
400,213.25,-74.62,-343.25,0.97,-0.81,-19.07
410,205.94,-55,-353.31,1.54,-0.21,-19.78
420,184.5,-34.75,-360.31,0.48,0.8,-20.83
430,184.5,-34.75,-360.31,-1.96,3.67,-22.51
440,93.87,22.5,-313.69,-2.79,4.56,-23.22
450,31.12,68.25,-255.19,-3.11,5.13,-23.79
460,-45.94,125.81,-184.75,-3.09,5.37,-23.86
470,-133.31,184.75,-113.25,-3.36,5.15,-21.79
480,-214.62,237.12,-47.56,-3.45,4.8,-20.26
490,-281.31,276.5,11.88,-3.51,4.32,-18.77
500,-335.81,301.75,65,-3.76,2.42,-15.13
510,-370.75,313.69,111.62,-4.21,1.69,-13.42
520,-375.25,311.69,153.75,-4.48,1.07,-11.75
530,-347.19,298.37,189.81,-4.97,0.09,-10.63
540,-307.62,282.44,210.75,-5.26,-2.92,-10.13
550,-278.37,268.81,214.12,-5.12,-3.62,-10.18
560,-255.69,257.37,203.19,-4.63,-3.84,-9.68
570,-225.25,245.75,182.5,-5.81,-3.16,-8.03
580,-225.25,245.75,182.5,-3.96,-3.19,-7.77
590,-192.25,233.44,167.62,-5.33,-1.81,-7.43
600,-136.75,196.94,148.56,-7.92,-0.28,-6.22
610,-90.94,180.56,171.94,-7.97,-0.91,-6.23
620,-63.69,149.94,198.12,-6.96,-2.28,-7.25
630,-63.69,149.94,198.12,-6.82,-4.08,-8.28
640,-78,129.5,209.44,-5.98,-8.35,-10.01
650,-227.25,81.19,177.44,-5.44,-9.23,-9.18
660,-259.87,74.25,136.25,-5.09,-9.12,-7.42
670,-227,76.06,91.06,-4.87,-7.83,-5.63
680,-227,76.06,91.06,-5,-6.52,-5.15
690,-186.31,67.69,53.13,-4.95,-5.41,-4.75
700,-134.19,21.69,20.75,-5.02,-4.45,-4.45
710,-111,-25.31,25.31,-4.21,-4.2,-5.52
720,-93.19,-68.56,31.75,-3.35,-4.18,-5.86
730,-93.19,-68.56,31.75,-3.07,-4.03,-6.65
740,-53.25,-91.19,35.81,-3.46,-4.48,-10.82
750,-24.56,-87.75,61.19,-2.99,-5.01,-12.48
760,-85.12,-72,71.94,-2.23,-5.21,-12.02
770,-122.56,-55.88,80.94,-1.83,-5.24,-10.1
780,-122.56,-55.88,80.94,-1.23,-6.58,-5.95
790,-112.94,-54.5,95.25,-0.78,-8.13,-5.92
800,-41.44,-67.06,96.81,-0.06,-9.76,-6.91
810,-81.44,-89.56,77.81,-0.57,-11.19,-7.18
820,-119.5,-121.94,64.75,-0.68,-11.2,-6.13
830,-119.5,-121.94,64.75,-0.68,-11.2,-6.13
840,-91,-145.37,61.94,-0.81,-11.74,-5.65
850,6.81,-167.5,60.75,0.1,-16.2,-8.47
860,-3.56,-174.94,51.38,0.59,-17.89,-9.16
870,-41.06,-181.12,28.25,1.54,-19.5,-9.15
880,-41.06,-181.12,28.25,1.54,-19.5,-9.15
890,-75.62,-196.81,-12.25,3.02,-21.5,-8.82
900,-49,-230,-117.06,2.38,-20.88,-10.66
910,-1,-234.69,-162.69,3.04,-18.86,-14.37
920,46.63,-225.75,-204.62,3.48,-17.31,-16.04
930,46.63,-225.75,-204.62,3.48,-17.31,-16.04
940,86.44,-211.31,-239.31,3.81,-14.89,-16.52
950,171.87,-174.94,-265.87,4.24,-7.57,-20.33
960,172.25,-144.44,-252.19,3.39,-5.84,-21.37
970,154,-100.62,-221.94,2.55,-4.81,-21.86
980,154,-100.62,-221.94,2.55,-4.81,-21.86
990,115.25,-46.56,-187.25,2.72,-5.07,-21.62
1000,65.69,44.44,-156.81,2.24,-6.48,-16.33
1010,72.75,59.88,-165.94,2.5,-7.41,-14.68
1020,72.75,59.88,-165.94,2.19,-5.98,-12.02
1030,76.81,59.75,-190.62,2.19,-5.98,-12.02
1040,88.44,47.31,-216.44,1.98,-4.44,-10.78
1050,121.69,31.81,-232.19,0.98,-0.79,-14.15
1060,127.81,19.44,-237.5,1.15,0.26,-14.15
1070,99.69,16.5,-246,1.09,1.43,-13.87
1080,81.62,23.31,-257.94,1.09,1.43,-13.87
1090,79.44,29.69,-266.87,0.97,3.87,-13.51
1100,81.94,33.13,-274.5,0.51,6.39,-14.53
1110,72.62,33.94,-278.12,0.38,7.94,-14.93
1120,60,34,-272,-1.02,11.16,-15.82
1130,40.88,34.19,-250.12,-1.02,11.16,-15.82
1140,41.13,45.88,-211.81,-1.99,11.99,-16.73
1150,26.25,67.06,-158.12,-3.79,12.65,-19.91
1160,-61.75,97.06,-94,-4.27,12.53,-17.38
1170,-148.69,132.31,-23.56,-3.97,11.42,-15.6
1180,-170.62,172.37,42.88,-3.97,11.42,-15.6
1190,-188.31,194.81,89.62,-3.65,9.68,-14.89
1200,-243.56,186.06,119.81,-4.7,6.54,-10.66
1210,-272.87,165.87,139.69,-4.1,4.35,-13.25
1220,-303.31,139.94,161.31,-4.26,3.9,-5.38
1230,-306.5,126.75,159,-4.26,3.9,-5.38
1240,-178.44,132.75,150.5,-4.77,3.56,-6.32
1250,-110.81,109.25,148.62,-4.98,2.71,-9.81
1260,-152.25,60.69,150.12,-5.22,2.29,-8.69
1270,-182.06,32.63,152.81,-4.93,1.5,-9.22
1280,-151.69,27.37,153.25,-4.93,1.5,-9.22
1290,-134.12,27.81,151.25,-4.89,0.87,-10.31
1300,-173.06,6.25,157,-5.21,-1.46,-9.9
1310,-205.81,-12.69,169.37,-4.3,-2.48,-9.07
1320,-179.31,-7.62,170,-3.28,-3.59,-9.15
1330,-136.75,-0.37,153.37,-3.28,-3.59,-9.15
1340,-142.75,-15.81,124.5,-1.38,-4.68,-10.07
1350,-175.19,-41.63,90.81,-2.04,-1.73,-8.96
1360,-166.81,-50.19,71.87,-4.32,-0.82,-10.92
1370,-139.12,-62.88,92,-4.33,-2.35,-12.11
1380,-131.19,-73.56,135.19,-4.33,-2.35,-12.11
1390,-139.31,-65.06,174.5,-4.35,-4.18,-12.47
1400,-153.5,-43,200.25,-3.02,-9.86,-9.91
1410,-172.19,-18.12,210.69,0.64,-11.84,-7.8
1420,-187.06,-8.31,198.5,-0.42,-12.73,-7.28
1430,-196.75,-28.06,150.75,-0.42,-12.73,-7.28
1440,-196.5,-62.88,111.94,-0.98,-13.17,-6.48
1450,-167.19,-92.94,83.06,-3.56,-14.27,-11.67
1460,-174.12,-115.75,70.37,-0.94,-15.05,-10.69
1470,-241.12,-143.69,57.81,-0.88,-15.28,-9.15
1480,-241.94,-151.44,28.5,-0.88,-15.28,-9.15
1490,-159.19,-139,-8,-0.5,-16.49,-9.5
1500,-99.94,-153.81,-53.19,0.25,-16.08,-13.95
1510,-74.12,-174.25,-106.06,0.04,-14.83,-15.88
1520,-47.38,-181.69,-153.44,0,-13.63,-16.53
1530,-8.5,-184.12,-187.75,0,-13.63,-16.53
1540,46,-170.5,-213.5,0.51,-12.3,-22.32
1550,48.25,-147,-237.37,1.38,-9.1,-23.25
1560,34.25,-111.69,-260.44,1.63,-7.16,-22.92
1570,49.31,-61.75,-276.75,1.76,-3.33,-22.53
1580,65.5,-14.81,-284.12,1.76,-3.33,-22.53
1590,48.5,21.19,-280.06,1.62,-1.55,-21.25
1600,35.94,48.69,-268.62,1.82,0.04,-18.73
1610,58.94,63.31,-254.69,2.26,2.41,-16.48
1620,73.81,60.81,-238.94,1.83,3.4,-16.25
1630,79.69,53.44,-218.31,1.59,4.33,-15.54
1640,107.5,51.94,-194.5,1.43,5.08,-14.75
1650,144.75,55.06,-172.87,1.22,4.42,-15.22
1660,159.62,58.75,-159.56,1.11,3.47,-15.71
1670,147.25,63.44,-159.62,1.23,2.7,-15.9
1680,129.06,67.56,-171.31,1.22,2.96,-15.1
1690,122.19,76.69,-191.87,1.08,2.85,-17.71
1700,59.88,96.44,-224.5,1.92,3.8,-18.5
1710,18.81,111.12,-260.56,2.34,9.21,-10.45
1720,114.87,131.5,-288.87,1.96,10.62,-11.99
1730,175.19,143,-308.44,1.21,12.32,-13.71
1740,152.75,135.44,-313,0.67,14.26,-13.63
1750,122.94,133.56,-312.62,-1.69,17.72,-14.22
1760,87.81,141.12,-286,-3.34,18.57,-14.66
1770,37.56,155.25,-217.25,-6.86,20.2,-14.82
1780,-13.63,170.69,-102.94,-5.66,20.05,-12.8
1790,-53.19,180.44,-13.75,-5.64,18.81,-12.18
1800,-97.25,181.75,64.75,-5.06,17.11,-10.71
1810,-124.5,171.5,121.44,-4.43,14.98,-8.8
1820,-124.75,155.19,152.56,-3.68,10.66,-6.78
1830,-116.56,135,163,-3.54,9.41,-6.48
1840,-109.19,107.75,163.56,-3.76,8.8,-6.34
1850,-100.37,78.94,164.87,-4.79,8.24,-7.07
1860,-89.69,56.63,172,-5.27,8.1,-7.6
1870,-78.94,40.31,184.87,-5.54,7.54,-8.36
1880,-74.44,26.81,197.12,-5.15,5.36,-10.02
1890,-79.25,20.31,201.12,-4.87,4.71,-10.51
1900,-92.69,15.69,199,-4.86,4.46,-10.76
1910,-102.06,8.44,198.31,-5.05,4.46,-10.91
1920,-98.69,-0.37,204.31,-5.62,4.04,-10.97
1930,-83.25,-12.19,216.69,-5.86,3.7,-11.34
1940,-60.81,-21.06,231.87,-5.99,3.11,-11.92
1950,-37.13,-18,244.94,-5.51,0.76,-13.54
1960,-29.87,-5.31,248.31,-4.53,-0.3,-13.89
1970,-42.44,5.62,237.75,-3.58,-0.82,-13.72
1980,-48.5,4.81,223.19,-3.73,-0.73,-13.53
1990,-25.5,7.62,218.06,-4.91,-1.37,-16.8
2000,-25.87,29,222.56,-5.18,-2.31,-19.23
2010,-85.81,76,232.12,-5.57,-3.34,-19.5
2020,-164.5,130.75,242,-4.71,-5.19,-12.76
2030,-220.69,160.06,247.56,-4.5,-5.76,-9.25
2040,-253.75,164.75,253.19,-4.31,-6.46,-6.63
2050,-267.12,154.94,261.69,-4.12,-7.42,-4.74
2060,-248.75,157.37,294,-3.67,-9.72,-0.99
2070,-198.37,78.5,280.69,-1.69,-12.05,-2.29
2080,-198.25,-10.69,217.62,-3.17,-14.98,-3.17
2090,-230.69,-69,158.25,-1.2,-18.31,-2.28
2100,-235.19,-124,73.31,-1.12,-17.79,-2.47
2110,-201.44,-165.56,-15.25,-1.63,-15.79,-3.38
2120,-148.62,-183.5,-84.5,-2.97,-9.74,-7.36
2130,-117.69,-188.69,-119.19,-3.81,-7.14,-9.1
2140,-120.44,-183.81,-119.19,-4.4,-5.48,-9.94
2150,-125.31,-167.37,-94.94,-3.89,-4.67,-9.99
2160,-133.31,-150.5,-60.94,-2.05,-8.64,-11.5
2170,-168.62,-161.62,-54.38,-1.58,-9.69,-9.6
2180,-151.19,-184.44,-74.06,-1.49,-9.86,-8.88
2190,-97.62,-211.31,-98.56,-0.54,-11.55,-13.08
2200,-80.75,-248.87,-134.31,0.92,-11.58,-15.68
2210,-84.31,-260.62,-187.37,0.59,-10.27,-17.33
2220,-69.12,-249.75,-236.37,0.7,-8.46,-18.76
2230,-24.56,-226.81,-276.75,2.12,-3.93,-19.65
2240,47.69,-210.5,-305,1.59,-1.48,-20.54
2250,120.81,-202.94,-310.37,1.31,0.52,-22.2
2260,157.87,-180.31,-293.06,1.31,3.84,-26.74
2270,143.19,-133.31,-256.5,0.69,4.8,-26.91
2280,118.25,-70.56,-204.44,0.25,4.41,-26.59
2290,91.56,-1.69,-154.69,0.4,2.14,-26.69
2300,33.94,56.94,-130.81,0.83,-2.55,-23.18
2310,-5.94,103.12,-138.12,1.38,-3.82,-20.26
2320,-1.25,137.94,-171.12,1.52,-3.78,-17.87
2330,19.56,153.94,-210.56,1.06,0.47,-12.81
2340,54.81,146.37,-238.56,0.92,2.77,-11.66
2350,96.81,117.12,-247.19,1,4.76,-11.59
2360,132.81,76.06,-239.44,1.15,7.63,-13.14
2370,176.81,46,-223.06,1.14,8.07,-14.43
2380,228,29.19,-201.75,0.91,7.92,-16.83
2390,247.5,35.25,-181.69,0.29,7.15,-21.13
2400,162.87,61.94,-166.56,0.37,9.22,-20.13
2410,114.44,100.62,-149.56,0.95,9.02,-18.42
2420,147.81,147.62,-136,1.42,8.08,-18.21
2430,146.12,176.25,-134.62,1.63,7.79,-16.62
2440,112.81,194.56,-140.19,1.62,8.3,-15.28
2450,84.37,206.94,-145.19,1.46,8.94,-13.83
2460,81.12,218.56,-145.81,1.23,9.33,-12.79
2470,84.44,227.69,-143.44,0.78,10.31,-10.25
2480,99.5,229.69,-138.37,0.29,10.7,-9.7
2490,117.44,230.69,-128.12,-0.43,10.86,-11
2500,77.31,224.94,-109.37,-1.5,11.98,-11.64
2510,0.25,215.25,-80.12,-1.91,12.52,-10.98
2520,-65,216.25,-44.19,-2.31,12.86,-9.86
2530,-101.31,221.94,-3.37,-2.72,12.82,-8.63
2540,-102.69,231.75,33.06,-2.87,11.81,-7.02
2550,-90.75,241.44,61.06,-3.03,11.23,-7.87
2560,-112.75,226.87,88.06,-2.83,10.8,-7.86
2570,-144.87,166.37,125.37,-4.11,10.23,-6.14
2580,-153.19,121.75,166,-4.4,9.2,-5.65
2590,-129.75,90.19,199.94,-4.58,7.86,-4.67
2600,-71.06,67.25,225.19,-4.79,6.35,-4.99
2610,-27.06,44.31,243.37,-5.47,2.62,-8.4
2620,-32.06,25.62,250.5,-5.23,1.1,-9.74
2630,-68.5,14.31,245.81,-5,-0.08,-10.22
2640,-102.06,14.38,231.44,-4.33,-2.12,-10.19
2650,-127.75,21.31,208.87,-3.7,-2.72,-10.08
2660,-156.25,28.44,179.56,-3.18,-2.73,-9.32
2670,-172.37,26.19,151.94,-4.19,-1.92,-6.66
2680,-150.25,23.44,135.87,-4.82,-2.02,-6.35
2690,-121.94,22.69,131.69,-5.24,-2.59,-6.04
2700,-122.44,8.19,133.44,-5.85,-3.47,-5.77
2710,-143.56,-20.75,133.31,-3.78,-6.48,-5.05
2720,-166.5,-65.19,120.75,-3.08,-7.8,-5.03
2730,-174.69,-110.06,87.06,1.03,-8.95,-4.5
2740,-171.81,-131.87,-1.94,0,-5.95,-7.23
2750,-187.81,-132.94,-73.87,-2.58,-1.88,-8.03
2760,-207.44,-142.06,-82.37,-4.54,0.92,-8.28
2770,-213.31,-161.62,-38.25,-5.26,1.77,-8.07
2780,-191.56,-198.75,23.06,-4.04,-2.54,-8.51
2790,-165.06,-237.87,64.56,-3.24,-5.14,-9.57
2800,-144.19,-249.31,74.12,-3.59,-6.92,-10.9
2810,-129.56,-258.75,70.37,-3.74,-10.16,-14.75
2820,-132.25,-262.81,58.25,-4.98,-11.73,-16.06
2830,-140.69,-258.44,38.5,-2.65,-13.35,-17.66
2840,-157.12,-252.69,7.19,-3.41,-14.18,-18.74
2850,-138.44,-225.5,-34.44,-0.29,-14.69,-17.72
2860,-70.87,-198.75,-76.75,-1.44,-14.76,-19.03
2870,-24.94,-175,-110.75,-0.38,-15.29,-21.06
2880,-35.63,-156.25,-145.87,1,-12.93,-20.3
2890,-17.69,-128.44,-179.94,1.17,-11.68,-20.56
2900,17.94,-106.62,-206.75,0.68,-10.11,-21.45
2910,33.81,-100.44,-222.69,1.19,-6.3,-20.87
2920,70.06,-99.81,-228.19,1.35,-5.35,-22.11
2930,106.06,-92.94,-228.81,1.82,-4.78,-23.58
2940,112.75,-75.69,-231.44,2.42,-4,-25.07
2950,106.31,-43.56,-236,3.15,-0.93,-24.02
2960,125.5,-1.44,-240.06,3.16,0.11,-23.01
2970,158.69,33.75,-242.37,2.94,1.41,-21.8
2980,162.31,47.06,-241.62,4.47,3.53,-22.9
2990,134.31,70.94,-249.25,4,5.14,-23.08
3000,96.69,107.69,-256.62,4.52,7.18,-21.44
3010,66.56,132.62,-254.5,3.35,9.81,-17.95
3020,104.37,168.19,-237.62,2.83,12.05,-18.96
3030,62.56,182.62,-213.5,2.55,13.06,-18.25
3040,-4.5,204.37,-185.06,1.91,14.5,-15.26
3050,7.44,236.31,-147.06,0.66,15.16,-11.16
3060,57.5,261.62,-106.06,0.7,14.08,-10.97
3070,65.81,272.56,-75,1.08,13.04,-11
3080,24.37,270.75,-57.88,1.58,12.56,-10.16
3090,-16.62,260.94,-47.75,1.76,13.19,-6.35
3100,-17.81,253.12,-37.81,1.61,13.29,-5.39
3110,0.62,251.56,-27.69,1.05,13.25,-5.09
3120,18.06,270.87,-15.88,-1.13,12.94,-5.8
3130,23.81,299.75,3.37,-4.5,13.04,-3.59
3140,-1.31,196.06,63.94,-2.76,12.18,-5.59
3150,-25.25,144.75,113.62,-3.9,10.32,-5.53
3160,-45.31,104.62,157,-3.28,8.4,-5.5
3170,-59,64.19,189.56,-4.17,7.64,-5.37
3180,-18.75,52.38,210.75,-3.57,5.98,-6.13
3190,-22.37,37,215.19,-3.03,2.63,-9.91
3200,-94.12,9.88,204.87,-3.24,2.49,-9.34
3210,-120,1.37,194.19,-3.95,2.38,-8.99
3220,-83.87,20.5,185.31,-4.57,0.89,-10.36
3230,-71.5,31.12,176.75,-4.66,0.31,-10.82
3240,-112.31,22.12,165.87,-5.17,0.43,-10.31
3250,-141.5,8.81,160.06,-4.94,0.54,-9.48
3260,-128.25,7.69,150.94,-3.27,-0.5,-9.56
3270,-114.75,11.25,129.31,-2.39,-0.61,-9.46
3280,-119.94,7.56,97.94,-2.15,0.57,-8.57
3290,-102.81,1.62,77,-2.98,3.34,-7.42
3300,-55.31,5.87,73.19,-3.27,4.01,-7.36
3310,-45.06,-15.25,87.44,-5.21,4,-8.38
3320,-75.87,-48,115.5,-5.51,3.12,-9.58
3330,-118.37,-80.25,146,-5.5,-0.18,-10.86
3340,-147.5,-102.94,168,-5.62,-2.05,-10.73
3350,-188.06,-154.19,179.62,-4.78,-3.64,-10.59
3360,-228.5,-169.25,161.5,-1.81,-5.88,-10.16
3370,-220.25,-102.37,104.19,-2.09,-6.39,-9.97
3380,-201.19,-90,51.31,-2.02,-6.24,-10.07
3390,-189,-87.94,4.37,-3.42,-4,-9.83
3400,-172.06,-95.81,-19.81,-3.95,-3.52,-10.22
3410,-154.94,-112.87,-19.94,-4.02,-3.79,-10.88
3420,-145.12,-129.94,-8.5,-4.88,-4.88,-11.54
3430,-140.25,-134.44,1.87,-3.12,-8.49,-13.17
3440,-140.25,-134.44,1.87,-1.61,-9.98,-13.19
3450,-183.19,-150.31,-19.56,-0.85,-11.6,-12.39
3460,-174,-170.44,-52.75,-1.19,-12.55,-14
3470,-138.75,-194.31,-79.06,-0.56,-12.7,-16.38
3480,-139.44,-213.94,-106.69,-0.92,-12.51,-18.76
3490,-139.44,-213.94,-106.69,-0.5,-11.8,-18.79
3500,-146.69,-218.69,-131.44,1.37,-11.07,-20.14
3510,-26.37,-177.5,-198,1.74,-9.81,-21.51
3520,44.94,-145.25,-231.5,1.94,-8.07,-22.92
3530,73,-118.06,-250.94,3.05,-4.67,-24.54
3540,73,-118.06,-250.94,2.95,-2.74,-24.03
3550,78.5,-83.25,-261.44,2.84,-1.18,-24.43
3560,90.31,2.37,-249.94,2.33,0.29,-24.11
3570,73.31,36.06,-231.94,2.38,3.27,-20.59
3580,75.19,58.88,-212.31,2.28,4.11,-18.64
3590,75.19,58.88,-212.31,2.76,4.59,-17.26
3600,106.75,72.62,-196.94,3.75,5.68,-18.7
3610,121.19,70.56,-185.31,3.7,6.57,-18.31
3620,125.69,91.12,-188,3.54,7.56,-17.16
3630,142.69,111,-188.06,2.79,9.1,-18.57
3640,142.69,111,-188.06,2.64,9.63,-19.1
3650,127.87,127.94,-185.87,2.58,11.92,-16.38
3660,18.31,168.12,-170.81,2.75,12.7,-16.37
3670,-12.31,184.5,-155.62,1.79,15.42,-12.85
3680,-11.31,201.44,-132.62,0.81,16.48,-10.86
3690,-11.31,201.44,-132.62,0.42,16.43,-10.23
3700,57.19,224.69,-94.75,-0.79,15.15,-10.83
3710,91.69,233.12,-3.56,-0.47,14.25,-10.42
3720,51.13,228.44,38.13,-0.25,13.24,-9.33
3730,22.81,220.62,72.56,-0.07,12.4,-7.88
3740,22.81,220.62,72.56,-0.8,10.17,-6.06
3750,26.44,209.62,102,-0.8,10.17,-6.06
3760,44.5,163.31,151.94,-1.8,7.72,-5.94
3770,45.38,132.62,170.81,-1.55,4.64,-6.38
3780,52.44,105.62,176.06,-1.08,3.03,-7.39
3790,52.44,105.62,176.06,-1.08,3.03,-7.39
3800,66.81,92.94,163.62,0.18,1.44,-9.28
3810,-3.75,80.94,80.94,0.98,3.55,-8.05
3820,8.19,85.12,42.88,0.36,5.21,-8.15
3830,31.56,88.87,23,-0.65,6.64,-9.05
3840,31.56,88.87,23,-0.65,6.64,-9.05
3850,16.44,87.19,24.06,-3.02,8.9,-9.84
3860,-56.63,88.62,80.87,-5.05,9.95,-8.86
3870,-72.62,89.06,126.94,-6.02,8.33,-7.82
3880,-82.31,85.06,173.12,-5.93,6.86,-7.56
3890,-82.31,85.06,173.12,-5.93,6.86,-7.56
3900,-97.12,78.12,208.62,-5.7,5.2,-7.21
3910,-109.62,67.69,230.62,-4.75,1.09,-6.02
3920,-109.62,67.69,230.62,-4.42,0.38,-5.98
3930,-108.19,57.69,216.94,-4.41,0,-5.89
3940,-116.81,43.94,192.5,-4.41,0,-5.89
3950,-130.37,29.5,164.25,-5.2,-0.59,-5.78
3960,-144.5,17.62,138,-5.93,-0.72,-5.13
3970,-158.19,11.31,118,-6.25,-0.96,-4.73
3980,-166.62,6.87,105.12,-5.65,-2.28,-4.32
3990,-171,-17.44,92.81,-5.65,-2.28,-4.32
4000,-181.19,-77.87,75.25,-4.84,-3.02,-5.08
4010,-190.12,-129.62,46.13,-3.17,-2.38,-8.3
4020,-182.44,-169.12,10.81,-2.94,-1.52,-9.8
4030,-163.37,-189.31,-16.25,-3.01,-0.28,-10.47
4040,-161.06,-183.75,-28.06,-3.01,-0.28,-10.47
4050,-176.69,-170.5,-15.81,-4.72,0.85,-10.29
4060,-177.56,-186.5,30.56,-7.54,-2.67,-12.4
4070,-158.94,-218.44,94.44,-7.71,-5.77,-14.15
4080,-146.62,-256.81,156.12,-7.55,-14.21,-19.06
4090,-156.56,-282.25,198.87,-7.55,-14.21,-19.06
4100,-202.56,-296.87,197.75,-2.32,-18.71,-19.52
4110,-235.94,-283.94,135,-2.53,-18.76,-18.84
4120,-229.5,-253.25,-7.81,-3.18,-13.52,-18.98
4130,-162.25,-204.44,-151.37,-3.61,-8.74,-19.17
4140,-43.63,-168.5,-238.62,-3.61,-8.74,-19.17
4150,58.81,-153.62,-269.81,-2.59,-6.97,-21.16
4160,89.31,-151.94,-274.62,-1.13,-2.14,-23.3
4170,78.06,-143.37,-266.44,-1.44,-1.36,-24.26
4180,69.06,-122.62,-238.5,-1.75,-2.04,-24.9
4190,43.31,-93.44,-196.62,-1.75,-2.04,-24.9
4200,1.31,-57.31,-156.69,-1.39,-3.73,-23.58
4210,-13.69,-18.12,-136.31,0.54,-7.07,-21.74
4220,-3.94,17.87,-150.44,1.74,-3.38,-17.82
4230,15.88,45.56,-193.62,1.75,-0.61,-17.19
4240,59.81,61.13,-241,1.75,-0.61,-17.19
4250,93.25,61.81,-273.75,2.25,2.17,-16.67
4260,110.56,49.13,-283.25,2.7,8.52,-19.87
4270,108.44,45.13,-271.5,2.71,10.29,-17.99
4280,54.94,62.75,-250.81,2.26,11.73,-15.93
4290,48.81,88.62,-223.12,2.26,11.73,-15.93
4300,95.06,110.87,-186.12,2.09,12.01,-17.12
4310,100,124.44,-151.94,2.59,12.61,-16.42
4320,79.06,140.19,-126,2.64,13.27,-16.28
4330,52.63,154.56,-102.25,1.94,14.14,-13.45
4340,8.06,172.25,-81.87,1.94,14.14,-13.45
4350,19.94,202.69,-58.19,1.43,14.41,-11.83
4360,67.87,228.19,-28.75,0.14,12.66,-9.61
4370,86.25,237.5,-3.31,0.03,12.02,-9.03
4380,93.19,237.56,19.56,0.26,11.16,-8.54
4390,97.5,230.37,38.44,0.26,11.16,-8.54
4400,101.75,217.87,51.69,-0.22,9.97,-7.84
4410,104.12,204.44,61,-0.86,9.29,-8.01
4420,86.44,188.75,66.81,-1.72,9.22,-7.1
4430,69.87,173.62,73.44,-2.13,8.76,-7.8
4440,71.44,162.37,82.5,-2.13,8.76,-7.8
4450,67.12,154.56,91.87,-1.92,8.38,-7.19
4460,62.44,145.06,99.87,-2.92,8.42,-6.89
4470,66.94,140.94,111.25,-3.41,7.03,-8.65
4480,31.56,131.06,119.81,-3.32,6.76,-8.56
4490,-24.25,119.06,126.62,-3.58,6.78,-7.66
4500,-52.13,112.31,135.06,-3.96,6.02,-6.76
4510,-62.06,107.19,142.81,-4.16,5.55,-6.83
4520,-79.87,98.5,149.69,-3.77,5.33,-6.31
4530,-98.87,85.69,157.44,-4.93,5.03,-6.41
4540,-116.31,76.81,167.94,-5.72,4.04,-5.6
4550,-130.25,51.38,180.87,-5.95,3.31,-5.65
4560,-134.75,10.69,193.37,-6.03,2.8,-5.56
4570,-125.62,-26.5,204.31,-6.59,1.06,-6.65
4580,-98.19,-50.31,212.44,-6.24,-0.22,-7.73
4590,-75.31,-58.38,211.06,-5.2,-1.35,-8.73
4600,-74.69,-55.31,197.81,-5.49,-3.13,-10.05
4610,-94.19,-50.19,176.87,-4.99,-3.47,-9.71
4620,-115.56,-34.38,150.5,-4.76,-3.66,-8.86
4630,-130.12,-27,122.62,-4.56,-3.57,-8.21
4640,-136.75,-28.44,95.06,-4.23,-2.56,-6.55
4650,-134.12,-42.06,72.94,-4.64,-1.71,-6.1
4660,-114.94,-60.81,62.56,-4.39,-1.02,-6.09
4670,-96,-84.75,62.63,-4.37,-0.21,-6.84
4680,-79.44,-113.62,70.94,-4.09,-0.38,-7.46
4690,-61.13,-144.87,83.81,-4.11,-0.66,-8.36
4700,-46.88,-178,99.56,-5.23,-1.19,-9.53
4710,-36.63,-204.19,119.06,-5.18,-3.41,-13.08
4720,-46.88,-221.12,135.31,-5.07,-4.34,-14.52
4730,-67.75,-228.44,144.12,-6.24,-5.02,-14.94
4740,-67.12,-214.37,152.31,-7.45,-7.59,-15.77
4750,-66.37,-207.62,166.19,-7.37,-9.23,-15.87
4760,-75.81,-200,176.69,-7.83,-11.46,-16.18
4770,-92.56,-186.75,177.12,-7.85,-13.86,-15.7
4780,-115.62,-183,161.56,-6.2,-21.91,-17.25
4790,-175.69,-197.06,104.75,-6.39,-22.91,-16.83
4800,-221.5,-207.62,10.94,-5.14,-21.73,-15.16
4810,-167.31,-197,-87.37,-5.61,-16.93,-17.01
4820,-64.5,-173.5,-164.56,-5.45,-14.71,-18.69
4830,5.25,-149.19,-216.19,-5.61,-12.12,-19.72
4840,37.94,-127.75,-239.87,-4.75,-8.65,-22.06
4850,37.38,-101.81,-242.06,-3.57,-7.62,-23.25
4860,4.62,-63.81,-240.44,-2.92,-6.43,-23.28
4870,-42.75,-19.06,-241.25,-2.2,-4.93,-21.42
4880,-57.06,21.06,-240.62,-1.15,-1.75,-18.06
4890,-45.56,49.75,-236.37,-1.32,-0.3,-16.54
4900,-25.94,62.56,-225.31,-1.81,0.83,-15.61
4910,-6.69,61.88,-204.75,-1.25,1.36,-15.64
4920,0.88,56.88,-184.19,-0.84,0.98,-16.15
4930,1.44,55.13,-173.06,-0.36,0.65,-16.41
4940,-1.31,58.19,-175.94,0.29,0.73,-16.22
4950,11.13,68.37,-187.37,0.28,2.38,-15.74
4960,40.25,86.69,-199.12,0.34,3.15,-15.03
4970,84.19,100.81,-207.69,1.09,3.83,-13.92
4980,143.56,104.12,-217.75,3.32,4.68,-14.17
4990,193.44,105.56,-234.31,4.18,5.49,-15.22
5000,208.44,106.69,-254.19,3.9,6.46,-17.52
5010,146.69,105.5,-267.06,4.79,8.11,-17.74
5020,102.19,133.75,-274.19,2.17,13.42,-13.69
5030,133.62,174.56,-252.44,0.52,14.61,-13.44
5040,161.31,202.56,-203.31,-0.52,15.44,-12.98
5050,167.31,227.25,-136.06,-2.39,15.6,-11.49
5060,147.62,238,-55.56,-2.62,14.52,-10.52
5070,121.5,238.44,25.94,-2.31,12.8,-9.95
5080,92.62,238,97.06,-2.07,8,-8.99
5090,40.44,228.5,148.94,-1.86,6.06,-7.55
5100,-5.25,217.19,182.75,-1.31,4.25,-6.11
5110,-13.38,203.81,200.69,-0.87,3.22,-3.93
5120,31.37,188.06,205.12,0.49,-0.44,-6.2
5130,44.75,168.31,194.5,1.32,-1.74,-7.53
5140,-16.87,138.25,163.06,1.53,-1.61,-7.21
5150,-71.25,113.94,128.19,0.93,0,-6.26
5160,-83.69,96.94,102.44,0.46,1.02,-6.4
5170,-83.06,80.25,89,-0.18,2.33,-6.25
5180,-68.81,67.37,91.44,-0.85,3.44,-6.01
5190,-41.75,56.38,110.25,-2.31,4.02,-6.45
5200,-15.75,44.69,140.75,-2.73,3.22,-7.37
5210,-6.69,35.63,173.12,-2.82,1.71,-8.43
5220,-27.75,27.19,197.12,-3.15,-1.24,-8.88
5230,-55.25,21,210.37,-3.43,-2.46,-8.71
5240,-68.06,19.25,215.69,-3.56,-3.63,-8.63
5250,-73.06,20.19,212.25,-3.37,-4.72,-8.4
5260,-73.81,19.75,199.12,-3.53,-6.89,-8.22
5270,-68.37,16,179.25,-4.31,-7.88,-8.8
5280,-68.44,11.94,156.37,-5.11,-9.03,-9.84
5290,-92.06,9.31,132.06,-7.53,-11.53,-11.96
5300,-137.44,7.44,105.25,-7.79,-12.65,-12.12
5310,-175.06,6,69.06,-7.11,-13.44,-11.55
5320,-171.94,13.5,14.56,-6.13,-13.91,-11.79
5330,-146.37,25.81,-55.06,-6.03,-12.4,-11.36
5340,-118.44,40.75,-126,-6.85,-9.47,-10.08
5350,-78.19,55.25,-174.5,-7.63,-7.14,-9.57
5360,-52.94,59.56,-194.81,-8.54,-4.27,-9.09
5370,-61,49.75,-194.5,-8.4,-3.49,-8.49
5380,-73.94,35.69,-185.75,-8.38,-3.26,-8.05
5390,-76.5,22.75,-180.25,-6.75,-4.15,-7.28
5400,-71.94,9.75,-191.56,-6.2,-4.02,-6.67
5410,-57.31,-6.62,-221.94,-5.83,-3.13,-5.92
5420,-18.44,-23.37,-261.25,-5.47,-1.91,-5.67
5430,31.31,-38.81,-298.94,-4.32,0.72,-6.25
5440,66.19,-54.38,-331.37,-3.69,1.93,-6.24
5450,86.44,-71,-358.5,-3.37,3.41,-6.31
5460,93.69,-87.81,-379.56,-3.02,7.82,-5.56
5470,95.37,-112.12,-385.94,-4.69,9.65,-5.59
5480,110.31,-130.56,-369.87,-3.35,11.58,-4.78
5490,132.12,-157.06,-330.5,-4.27,11.89,-7.3
5500,121.56,-170.62,-289.37,-2.84,13.42,-9.6
5510,92.5,-164.06,-250.75,-1.96,14.12,-9.9
5520,76.62,-146.37,-201.12,-1.97,15.95,-6.13
5530,92.37,-166.94,-133.31,-1.2,11.16,-16.84
5540,9.06,-166.69,-70.44,-1.22,9.18,-19.9
5550,-235,-163.19,-46,-0.27,11.73,-11.56
5560,-312.37,-171,-13.69,-0.31,11.66,-7.45
5570,-121,-171.19,35.31,0.59,9.51,-11.25
5580,-16.31,-194,62.5,0.78,9.02,-12.44
5590,-8,-233.31,76.56,0.92,9.76,-11.86
5600,38.31,-261.06,100.69,2.1,8.23,-16.54
5610,86.12,-275.31,129.06,2.45,7.5,-18.43
5620,99.31,-271.37,153.94,3.25,6.97,-19.01
5630,109.81,-253.31,177.75,3.69,5.1,-21.42
5640,102.12,-226.19,205.56,1.54,6.07,-19
5650,109.5,-214.5,242.69,0.71,4.05,-20.42
5660,140.69,-210.69,287.69,2.57,0.69,-24.32
5670,112.75,-181.62,309,3.25,-3.51,-25.13
5680,73.56,-136.31,304.94,3.48,-4.92,-24.68
5690,82.69,-72.75,289.69,3.96,-6.84,-24.94
5700,87.12,-0.13,256.25,4.76,-8.27,-23.08
5710,74.12,70.06,208.44,3.65,-7.33,-20.69
5720,65.94,126.19,162.44,2.4,-6.14,-18.84
5730,68.81,160.31,135.69,1.24,-5.17,-17.57
5740,67.31,177.37,128.69,-1.51,-4.27,-16.49
5750,50.06,187.5,137.19,-2.04,-4.21,-15.75
5760,18.62,191.06,155.37,-2.26,-4.57,-14.88
5770,-6.62,184.5,171.5,-2.57,-5.89,-14.63
5780,-24.75,179.5,178.87,-3.22,-6.31,-14.79
5790,-39.19,178.12,180.31,-3.84,-6.76,-15.07
5800,-52.44,182.5,179.19,-6.01,-7.15,-15
5810,-71.31,184.44,179.87,-6.75,-7.47,-14.94
5820,-94.37,177.87,184,-6.91,-8.27,-15.22
5830,-120.94,173.44,183.37,-6.15,-9.63,-15.32
5840,-149.37,173.44,164.75,-5.42,-11.43,-13.4
5850,-147,177.37,127.62,-6.14,-10.76,-12.88
5860,-115.19,186.94,73,-5.51,-9.34,-12.05
5870,-59.94,204.25,17.06,-4.36,-4.87,-10.98
5880,-1.62,222.44,-36.56,-4.24,-1.58,-10.23
5890,41.69,233.31,-72.87,-4.54,1.33,-9.28
5900,75,233.94,-77.25,-5.24,3.01,-8.53
5910,97.19,223.06,-56,-6.53,3.8,-6.96
5920,106.94,194.69,-20.69,-7.01,3.06,-6.47
5930,112.25,142.75,16.5,-6.76,1.3,-6.69
5940,121.25,89.69,41.38,-4.81,-4.13,-8.76
5950,132.06,57.88,38.31,-4.22,-6.46,-10.23
5960,133.19,52.19,-2.75,-4.81,-6.27,-10.69
5970,126.12,64.44,-59.56,-5.08,-4.93,-10.35
5980,120.69,78.62,-105.06,-5.79,-1.47,-9.85
5990,111.56,92.12,-130.87,-5.18,-0.89,-10.34
6000,79.56,107.44,-146,-5.28,-0.21,-10.18
6010,36,126.12,-159.81,-4.88,0.88,-7.15
6020,2.25,132.75,-171.37,-10.93,2.49,-3.95
6030,63.5,93.62,-166.62,-2.73,-0.37,-6.02
6040,130.25,47.81,-182.81,-7.11,2.82,-8.24
6050,110.62,40.88,-211.87,-7.53,3.07,-8.79
6060,81.44,52.81,-208.06,-6.56,2.84,-9.27
6070,42,62.81,-205,-5.35,2.44,-9.67
6080,-13.06,68.94,-215.5,-5.48,4.59,-8.39
6090,-42.06,89.19,-229.62,-5.62,5.39,-8.04
6100,-46,113.69,-237.75,-5.63,5.29,-8.13
6110,-70.69,125.19,-243.75,-6.34,6.04,-6.81
6120,-118.19,110,-247.87,-6.34,6.87,-5.95
6130,-131.56,86.5,-245.25,-5.3,7.47,-5.06
6140,-101.25,63.25,-243.31,-4.17,8.22,-4.42
6150,-36.69,44.31,-247.12,-3,9.73,-5.36
6160,32.75,33.19,-253.94,-2.76,10.21,-6.44
6170,69.75,30.31,-259.75,-2.81,10.54,-7.33
6180,68.75,28.12,-257.87,-3.38,11.07,-8.45
6190,44.06,21.62,-246.94,-3.54,10.92,-8.82
6200,44.06,21.62,-246.94,-3.36,10.32,-9.46
6210,12.31,12.81,-228.56,-2.43,9.28,-10.19
6220,-41.75,21.12,-205.62,-0.87,6.73,-13.73
6230,-80.06,47.06,-216.06,0.2,5.54,-15.23
6240,-133.44,110.5,-244.37,0.9,4.52,-16.38
6250,-212.56,193.5,-285.12,-0.69,5.2,-15.49
6260,-305.69,290.62,-327.31,-2.73,7.18,-13.36
6270,-390.75,382.37,-345.06,-2.14,9.43,-9.65
6280,-457.06,457.62,-339.62,-2.81,11.97,-4.9
6290,-489.44,578.06,-327.56,-4.53,13.61,2.88
6300,-518.5,670.62,-305.12,-5.78,14.16,3.94
6310,-564,577.62,-226,-4.32,14.65,7.36
6320,-622.87,556.75,-158.12,-3.88,12.43,14.71
6330,-701.44,488.44,-81.5,-3.75,10.71,18.49
6340,-773.56,387.06,-3.62,-2.93,8.81,23.29
6350,-773.56,387.06,-3.62,1.36,4.33,30.33
6360,-768.69,284.5,73.06,3.58,2.28,31.85
6370,-467.31,86.75,142.5,5.11,0.4,31.25
6380,-269.31,-12.13,122.5,6.67,-0.88,29.77
6390,-89.19,-95.37,78.37,7.53,-1.69,23.34
6400,-89.19,-95.37,78.37,8.02,-1.45,19.46
6410,60.81,-152.25,21.81,8.19,-0.74,15.28
6420,179.37,-217.75,-84.44,8.04,2.66,10.01
6430,142.25,-244.19,-128.94,6.84,5.05,9.38
6440,104.5,-263.56,-154.94,5.53,7.15,8.93
6450,104.5,-263.56,-154.94,4.75,8.58,8.03
6460,102.75,-273.25,-154.44,4.79,10.34,5.24
6470,136.5,-273.62,-106.56,4.88,10.68,3.86
6480,139.94,-263.62,-77.69,5.21,10.91,2.77
6490,132.19,-250.12,-52.88,6.05,11.59,1.91
6500,132.19,-250.12,-52.88,5.86,12.29,2.27
6510,119.31,-238.06,-32,5.49,12.72,1.95
6520,82.44,-246.06,17.75,4.05,12.78,1.21
6530,43.69,-263.75,54.19,4.49,12.21,1.56
6540,10.25,-290.5,92.56,5.13,11.33,1.67
6550,10.25,-290.5,92.56,5.43,10.53,1.13
6560,4.25,-328.87,122.56,4.44,8.81,-1.69
6570,57.25,-392.25,166.69,3.98,7.75,-2.76
6580,70.94,-454.12,194.31,3.63,6.9,-4.93
6590,73.69,-472.56,215.19,6.85,4.71,-7.73
6600,73.69,-472.56,215.19,6.85,4.71,-7.73
6610,103.12,-371.5,204.12,6.72,3.74,-9.12
6620,157,-300.87,187.37,8.96,2.83,-9.67
6630,201.37,-266.37,171.94,7.48,2.03,-10.33
6640,254.44,-237.12,160.31,6.81,1.43,-11.37
6650,254.44,-237.12,160.31,6.81,1.43,-11.37
6660,299.5,-213,157.31,6.84,0.6,-12.93
6670,314.81,-147.37,157.06,5.56,-1.35,-16.31
6680,284.94,-96.06,154.25,5.97,-2.15,-16.67
6690,235.19,-43.13,143.56,6.13,-2.64,-16.14
6700,235.19,-43.13,143.56,6.13,-2.64,-16.14
6710,180.19,4.12,124.62,5.14,-2.64,-13.09
6720,126.44,61.44,84.19,5,-1.66,-8.09
6730,149.94,51.44,70.19,3.95,-0.8,-4.99
6740,214.25,12.06,67.5,3.1,-1.7,-6.08
6750,214.25,12.06,67.5,3.1,-1.7,-6.08
6760,299.5,-34.75,75.12,0.99,-3.41,-9.09
6770,361.69,-61.5,85.75,2.01,-8.05,-16.54
6780,334.25,-66.44,76.81,1.82,-8.29,-16.71
6790,257.12,-45.94,41.81,1.23,-7.56,-15.82
6800,180.75,-8.88,-8.56,1.23,-7.56,-15.82
6810,124.5,32.5,-58.5,-1.02,-4.38,-11.98
6820,95.12,61.63,-90.94,-1.88,-2.68,-9.2
6830,91.06,70.25,-105.12,-1.48,-2.79,-9.3
6840,107,62.63,-111.94,-1.45,-2.94,-10.2
6850,124.44,49.56,-121.37,-1.45,-2.94,-10.2
6860,113.87,36.13,-141.37,-1.83,-2.55,-10.71
6870,84.44,35.38,-167.94,-2.18,1.09,-8.94
6880,50.94,46.56,-195.06,-2.38,2.95,-7.35
6890,20.31,57.69,-214.06,-3.17,4.84,-5.34
6900,6.5,61.56,-224,-3.17,4.84,-5.34
6910,28.62,44.38,-210.5,-3.33,6.57,-4.67
6920,66.56,5.81,-178.87,-1.65,5.35,-7.21
6930,91.25,-39.5,-142.81,-1.07,5.09,-7.61
6940,89.62,-70.12,-122.69,-0.41,5.47,-8.27
6950,94.75,-80,-119.94,-0.41,5.47,-8.27
6960,113.87,-79.19,-123.81,0.03,5.59,-9.13
6970,107.19,-81,-132.44,-0.26,7.56,-8.78
6980,77.06,-88.25,-141.12,0.09,7.8,-8.35
6990,66.25,-89.44,-143.12,0.59,8.01,-7.92
7000,80.62,-87.94,-140.44,0.59,8.01,-7.92
7010,99.81,-96.12,-138.69,0.54,8.98,-7.5
7020,117.37,-116,-133.81,0.18,9.08,-8.49
7030,136.31,-139.06,-124.25,-0.09,8.79,-9.83
7040,150.37,-162.44,-113,1.18,8.28,-12.08
7050,145.94,-179.69,-103.31,1.18,8.28,-12.08
7060,122.37,-180.31,-101.56,1.29,8.25,-12.44
7070,88.25,-172.69,-107.12,2.3,8.92,-11.2
7080,53,-163.06,-112.94,2.22,9.01,-10.15
7090,23.06,-161.5,-117.19,3,9.14,-9.1
7100,18.87,-159.25,-121.5,3,9.14,-9.1
7110,54.56,-147.31,-128.62,6.31,9.32,-10.01
7120,50,-135.69,-142.37,3.98,12.22,-9.35
7130,-68.37,-137.87,-157,4.87,14.07,-7.51
7140,-141.56,-148.44,-165.69,5.26,16.64,-7.8
7150,-115.12,-157.62,-154.25,5.26,16.64,-7.8
7160,-63.81,-175.56,-128.75,4.19,18.03,-8.19
7170,-32.56,-204.5,-82.75,3.52,17.08,-11.56
7180,-4.19,-229.5,-16.25,6.03,13.83,-16.1
7190,11.5,-227.19,47.13,7.33,11.89,-17.56
7200,-10.5,-214.19,98.62,7.33,11.89,-17.56
7210,-65.94,-199.81,134.56,8.44,10.48,-18.08
7220,-121,-172.44,152.69,14.17,9.58,-16.01
7230,-147.25,-123.31,158.75,12.3,10.03,-14.19
7240,-152.87,-68.44,158.37,4.29,11.66,-8.64
7250,-158.06,-35.56,160.69,4.29,11.66,-8.64
7260,-83.5,-36.31,185,2.58,8.83,-11.64
7270,28.06,-81.5,250.75,-0.04,2.17,-17.29
7280,79.12,-138.94,326.12,3.54,-5.2,-20.76
7290,106,-142.94,380.44,4.64,-7.13,-21.12
7300,109.37,-79.87,385.37,4.64,-7.13,-21.12
7310,62.88,7.12,339.56,4.1,-7.56,-19.61
7320,-23.5,70.44,277,4.27,-5.27,-15.74
7330,-129.44,100.31,217.25,4.27,-5.27,-15.74
7340,-246.5,104.81,165.69,3.3,-2.23,-12.12
7350,-288.75,103.75,138.87,2.56,0.39,-9.18
7360,-226.56,98.81,141.62,1.2,1.89,-8.75
7370,-142.56,75.62,164.25,1.65,1.59,-9.76
7380,-97.37,39.75,190.56,1.7,1.08,-10.7
7390,-76.87,7.19,212.44,0.89,-1.51,-12.76
7400,-55.69,-11.81,229.19,1.44,-3.29,-13.95
7410,-35.44,-17.25,233.75,1.58,-4.73,-14.96
7420,-24.44,-12.94,220,1.69,-5.5,-15.15
7430,-5.12,-0.56,191.75,1.14,-6.25,-15.22
7440,36.69,17.31,155.94,0.97,-6.35,-15.82
7450,80.31,36.5,114.12,0.55,-6.26,-16.39
7460,118.12,61.31,69.75,-0.04,-5.39,-16.46
7470,151.44,92,24.69,-0.48,-4.4,-15.71
7480,186.56,126.06,-17.5,-0.99,-3.07,-14.52
7490,227.31,154.56,-51.44,-2.09,-0.91,-12.21
7500,265.69,170,-72.75,-2.79,-0.31,-11.56
7510,290,169.75,-82.5,-3.54,-0.11,-11.28
7520,299.31,159.5,-81.44,-3.7,-0.34,-11.17
7530,294.37,146.94,-75.12,-4,-0.41,-9.92
7540,284.75,135.37,-68.69,-4.33,-0.59,-8.76
7550,296.94,128.44,-64.69,-3.57,-2.72,-11.73
7560,255.5,120.69,-63.88,-3.24,-2.71,-12.63
7570,93.56,95.19,-81.62,-4.06,-1.58,-9.82
7580,-25.12,83.69,-95.06,-3.67,-0.55,-7.38
7590,-10.19,86.62,-98.5,-3.33,-0.49,-7.73
7600,50.13,84.12,-102.25,-3.82,1.25,-3.48
7610,135.94,79.75,-121.44,-2.7,0.45,-4.72
7620,278,71.87,-121.25,-2.31,-0.28,-7.93
7630,305.5,38.13,-126.75,-2.34,0.01,-11.81
7640,223.19,6,-137.62,-1.87,1.04,-11.44
7650,117.37,-0.56,-149.25,-2.12,1.89,-10.28
7660,55.5,3,-154.69,-2.37,2.58,-9.25
7670,45.63,16.37,-153.94,-1.34,3.55,-8.11
7680,32.19,10.75,-151,-1.03,4.03,-7.68
7690,20.62,-6.12,-150.31,-0.57,4.71,-7.16
7700,36.38,-21.44,-151.62,-0.44,5.94,-7.2
7710,86.06,-34.81,-151.25,-0.87,6.2,-8.23
7720,140,-43.81,-144.06,-0.88,6.48,-9.39
7730,161,-52.81,-128.25,-1.32,6.76,-10.36
7740,148.69,-58.69,-103.25,-0.99,6.59,-11.46
7750,117,-55.44,-74.25,-0.61,5.6,-11.43
7760,72.56,-48.69,-52.38,0.17,4.4,-11.32
7770,11.38,-45.75,-42.19,1.82,3.39,-10.34
7780,-68.06,-57,-44.94,1.89,4.01,-9.39
7790,-130.31,-76.87,-50.44,1.31,4.74,-8.75
7800,-156.25,-104.5,-44.5,1.86,4.67,-8.97
7810,-137.62,-130.31,-31.69,2.28,4.34,-9.08
7820,-66.81,-131.5,-27.25,2.77,3.63,-10.29
7830,22.12,-113.25,-34,3.09,2.93,-12.53
7840,40.19,-93.12,-50.56,3.13,4.79,-12.8
7850,-18.5,-80.31,-67.62,3.39,6.1,-11.14
7860,-64.87,-67.56,-76.62,3.9,7.04,-9.93
7870,-73.75,-55.56,-80.25,2.88,8.9,-8.54
7880,-72.5,-52.5,-79.12,3.84,8.56,-9.51
7890,-67.81,-56.13,-65.06,4.72,8.26,-10.75
7900,-79,-38.44,-59,3.9,9.3,-9.35
7910,-82.94,-20.31,-47.25,3.94,9.95,-7.18
7920,-65.94,-8.13,-23.94,4.53,9.36,-7.07
7930,-51.56,-6.37,0.06,4.6,9.11,-6.46
7940,-43.25,-11.81,19.25,3.91,8.78,-6.5
7950,-32.75,-28.5,36.31,6.26,7,-8.71
7960,-65.25,-53.06,46.38,6.35,8.03,-6.99
7970,-117.75,-75.06,43,5.82,9.18,-6.5
7980,-114.94,-91.06,46.56,4.45,10.72,-7.52
7990,-110.81,-106.87,57.81,5.26,11.39,-7.14
8000,-84,-114.69,81.37,4.86,11.55,-7.05
8010,-31.44,-114.94,115.5,4.51,9.24,-10.4
8020,-14.19,-126.31,156.37,4.79,7.57,-11.37
8030,-43.06,-146.19,191.87,5.36,5.98,-11.28
8040,-56.56,-162.62,215,6.91,2.13,-13.33
8050,-26.87,-164.75,224.5,8.49,0.25,-15.14
8060,-7.31,-140.87,215.25,10.11,-0.91,-15.64
8070,-24.19,-102.62,182.5,11.51,-1.1,-15.25
8080,-41.44,-65.62,134.12,11.69,1.74,-13.86
8090,-35.5,-28.81,86.31,10.05,4.72,-12.83
8100,-21.06,0.06,65.19,8.17,7.19,-12.05
8110,-20.5,10.06,87.5,4.67,7.47,-11.47
8120,-37.25,0.81,149.25,5.24,4.38,-12.02
8130,-60.5,-21.62,219.12,5.98,0.81,-12.71
8140,-73.37,-35.19,258.12,6.69,-1.72,-12.97
8150,-59.44,-24.94,258.06,8.99,-4.51,-13.81
8160,-39.06,-2.06,226.31,9.08,-4.18,-14.14
8170,-36.31,23.75,175.69,8.13,-2.44,-13.7
8180,-36.19,52.5,132.81,6.06,1.59,-12.88
8190,-26.56,76.12,117.94,4.81,2.87,-12.87
8200,-24.5,86.31,130.12,4.16,3.37,-12.61
8210,-30.19,89.31,160.12,3.23,1.5,-12.54
8220,-44.5,85.5,194.94,2.88,0.09,-12.7
8230,-71.19,80.94,220.37,1.9,-1.54,-13.09
8240,-109.44,79.44,235,2.25,-3.24,-13.12
8250,-150.81,82.44,237.56,3.59,-5.13,-10.4
8260,-156.62,90.69,222.56,4.28,-5.2,-9.01
8270,-107.19,92.56,195.37,3.89,-5.15,-8.5
8280,-23.69,83.19,163.69,3.86,-5.45,-9.27
8290,64.94,71.75,134.19,3.45,-5.55,-10.53
8300,136.75,57.19,103.56,3.01,-5.76,-12.07
8310,179.06,47.31,75.56,3.69,-6.28,-17.25
8320,125.31,50.06,45.75,2.16,-1.86,-14.9
8330,1.12,48.19,10.06,1.77,0.57,-11.64
8340,32.69,75.25,-0.06,1.88,0.92,-11.93
8350,126.19,101.44,2.56,-0.18,2.14,-11.91
8360,141.5,108.56,11.25,-1.55,2.53,-10.94
8370,115.37,99.75,35.06,-1.95,1.75,-9.89
8380,101.5,82.12,68.12,-1.74,-0.46,-9.76
8390,99.62,60.19,88.87,-0.5,-5.44,-10.64
8400,92.69,44.06,80.31,0.63,-6.81,-10.95
8410,86.44,38.94,40.94,0.87,-7.35,-11.32
8420,84.69,42.25,-19.44,-0.26,-4.68,-10.83
8430,91.19,50.13,-83.56,0.02,-2.65,-9.14
8440,121.12,61.63,-130.69,-1.09,0.16,-8.01
8450,207.87,72.37,-152.87,-1.29,1.26,-12.89
8460,234.75,68.69,-149.25,-1.89,2.69,-12.36
8470,131.87,47.06,-137.25,-2.11,3.65,-10.57
8480,58.75,38.13,-111.19,-1.28,3.33,-9.62
8490,56.69,45.56,-84.69,-0.02,0.65,-9.68
8500,44.06,42.88,-74.19,-0.04,-0.02,-8.73
8510,22.37,37.13,-79.12,0.45,-0.04,-7.58
8520,36,31.81,-92.75,0.87,0.85,-7.51
8530,73.5,23.62,-114.25,0.51,1.76,-8.09
8540,95,12.31,-129.56,0.3,2.9,-8.03
8550,97.75,3.69,-132.62,-0.21,3.56,-8.15
8560,99.87,2.69,-122,-0.42,3.41,-9.19
8570,73.44,-4.62,-104.56,0.04,2.29,-9.2
8580,34.31,-11.38,-87.94,0.9,0.82,-8.93
8590,15.19,-7.69,-86.87,1.75,-1.23,-8.88
8600,14.88,1.44,-104.5,2.11,-0.97,-8.71
8610,14,10.31,-134.37,1.86,0.04,-8.12
8620,12.75,15.69,-162.62,2.27,1.59,-7.17
8630,29.81,15.44,-183.31,3.97,4.65,-5.74
8640,71.31,8.38,-198.5,3.98,6.16,-5.56
8650,123.31,-6,-206.5,3.63,7.48,-5.91
8660,177.06,-19.81,-200.25,2.39,9.19,-6.76
8670,211.44,-35.56,-176.56,1.81,9.1,-7.93
8680,241.56,-54.31,-136.12,2.57,7.18,-10.58
8690,233.06,-62.31,-91.37,3.81,4.17,-13.83
8700,117.25,-82.19,-67.5,4.39,3.44,-13.22
8710,-20,-88,-64.5,4.93,3.73,-11.87
8720,-111.12,-83.31,-77.94,5.11,4.72,-10.36
8730,-142.5,-70.75,-96.56,4.73,8.41,-6.83
8740,-122.62,-56.81,-108.06,4.53,9.29,-6.97
8750,-54.5,-39.38,-103.12,4.3,9.21,-8.38
8760,-33.31,-33.94,-87.81,3.87,9.48,-8.71
8770,-88.37,-46.75,-67.06,3.81,9.37,-7.71
8780,-147.56,-64,-38.81,4.31,8.47,-7.19
8790,-168.75,-76.62,-11.13,5.39,7,-7.29
8800,-163.81,-79.81,-0.88,8.17,5.91,-6.64
8810,-144.44,-71.25,-13.44,6.03,6.33,-5.35
8820,-99.69,-56.25,-34.06,8.33,6.49,-4.23
8830,-23,-47.88,-51.13,7.12,6.2,-6.43
8840,38.5,-37.75,-75.5,7.19,7.21,-6.62
8850,56.44,-36.69,-91.06,5.73,8.61,-7.06
8860,39.13,-45.19,-89,6.17,8.3,-8.62
8870,-30.56,-59.94,-75.69,6.55,9.98,-6.62
8880,-91.37,-72.62,-58.75,7.28,10.15,-6.35
8890,-107.81,-76.62,-41.25,7.86,10.25,-6.05
8900,-105.44,-77.75,-27.75,8.78,10.9,-6.19
8910,-99.94,-84.25,-16.31,8.72,11.48,-6.35
8920,-91.94,-96.31,-1.69,7.91,11.76,-7.33
8930,-87.19,-109.94,23.25,7.42,12.05,-6.92
8940,-70.12,-120.81,58.19,6.44,10.01,-9.86
8950,-45.44,-122.06,97.12,6.7,8.26,-11.66
8960,-112.94,-106.44,144.94,7.41,6.82,-12.38
8970,-112.94,-106.44,144.94,8.76,4.61,-12.78
8980,-157.5,-89.5,147.37,9.56,4.16,-12.71
8990,-191.19,-62.44,136.12,10.08,4.46,-11.39
9000,-217.37,-34.5,117.31,9.27,6.59,-7.88
9010,-217.37,-34.5,117.31,8.81,7.54,-6.84
9020,-189.19,-12.44,108.25,8.21,7.87,-6.63
9030,-163.44,-19.31,126.06,7.38,7.41,-6.79
9040,-158.87,-33.75,151.37,7.87,5.22,-7.33
9050,-170.12,-51.63,171.87,8.1,4.53,-7.21
9060,-166.19,-78.12,183.19,7.93,4.1,-7.19
9070,-166.19,-78.12,183.19,7.94,2.65,-8.36
9080,-150.5,-92.25,183.56,7.98,2.18,-9.03
9090,-138.62,-113.94,180.87,7.68,1.72,-9.68
9100,-118.37,-132.37,176.12,7.32,1.2,-10.55
9110,-63.69,-144.69,157,6.76,0.03,-12.76
9120,-63.69,-144.69,157,5.81,-0.02,-13.42
9130,-53.31,-146.75,141.62,6.11,0.23,-13.9
9140,15,-107.44,107.44,5.45,0.91,-14.13
9150,74.5,-71.62,93.87,4.95,1.52,-14.12
9160,74.5,-71.62,93.87,4.42,2.02,-14.36
9170,127.06,-38.31,88.69,3.74,2.38,-14.18
9180,205.69,12.06,104.75,2.05,2.21,-13.81
9190,219.12,29,119.06,2.03,0.8,-15.1
9200,187.44,42.13,121.69,2.21,-0.35,-15.96
9210,187.44,42.13,121.69,1.56,-1.68,-15.87
9220,141.37,57.25,115.19,1.76,-1.69,-15.14
9230,115.75,79.44,101.12,1.88,-3.1,-18.51
9240,-83.75,112.37,55,0.99,-1,-13.24
9250,-94.31,131.25,37,0.73,0.84,-8.84
9260,-94.31,131.25,37,1.06,0.58,-8.13
9270,28.06,148.75,31.44,1.09,0.11,-8.61
9280,149.94,133.31,8.69,1.62,0.41,-8.17
9290,162.25,113.12,-4,1.69,0.69,-8.03
9300,163.94,90.5,-14.69,1.62,0.64,-8.26
9310,163.94,90.5,-14.69,1.34,0.92,-8.18
9320,154.75,67.12,-24.87,1.3,1.11,-8.56
9330,133.12,27.12,-36.81,0.98,1.6,-8.55
9340,145.62,17.44,-35.56,0.66,1.85,-8.54
9350,174.81,18.12,-34.56,0.86,1.09,-9.72
9360,174.81,18.12,-34.56,0.86,1.09,-9.72
9370,186.19,25.31,-37.75,0.78,0.06,-11.83
9380,83.37,37.63,-52.75,1.02,-0.95,-12.36
9390,27,51.19,-71.25,0.52,1.9,-8.74
9400,72.37,78.94,-65.87,-1.78,2.75,-6.93
9410,72.37,78.94,-65.87,-1.78,2.75,-6.93
9420,65.81,70.62,-58.69,0.48,0.28,-7.75
9430,-37,48.13,-84.94,0.04,0.65,-7.08
9440,-46.25,38.38,-103.5,0.53,0.15,-6.72
9450,-19.56,27.19,-128.06,0.05,2.28,-4.33
9460,-19.56,27.19,-128.06,0.05,2.28,-4.33
9470,40.69,12.31,-143.81,0.27,2.48,-5.18
9480,52.44,-35.88,-173.31,-0.98,5.99,-5.81
9490,80.56,-53.5,-164.19,-0.64,6.32,-6.54
9500,126.37,-53.06,-149.87,-1.49,6.61,-6.86
9510,126.37,-53.06,-149.87,-1.49,6.61,-6.86
9520,152.87,-55.5,-131.25,-1.21,5.93,-7.87
9530,92.12,-48.63,-138.62,1.32,4.02,-11.48
9540,43.06,-35.56,-165.69,2.45,4.27,-11.36
9550,16.37,-26.5,-198.25,3.47,6.51,-9.78
9560,16.37,-26.5,-198.25,3.47,6.51,-9.78
9570,15.13,-26.44,-224.87,3.27,8.1,-9.02
9580,79.12,-18.12,-230.94,2.15,11.75,-8.32
9590,110.75,-5.56,-201.19,1.11,14.69,-8.43
9600,137.12,0.19,-150.69,-0.47,15.36,-7.1
9610,137.12,0.19,-150.69,-0.47,15.36,-7.1
9620,158.5,10.25,-79.62,0.18,14.83,-9.16
9630,-166.69,-42,15.75,2.54,9.35,-13.24
9640,-359.81,-72.81,32.13,4.2,8.96,-9.9
9650,-359.81,-72.81,32.13,4.87,9.42,-6.44
9660,-384.37,-71.37,36.38,4.87,9.42,-6.44
9670,-260.19,-40.56,30.75,6.59,8.19,-3.86
9680,-132.19,-15,7,8.13,8.22,-3.61
9690,-55.25,-15.94,-25.31,7.01,11.49,-2.99
9700,21.31,-35.25,-37.38,5.73,11.32,-4.65
9710,91.5,-59.13,-23.31,5.73,11.32,-4.65
9720,107.19,-67.87,-1.06,6.32,9.34,-8.68
9730,47.75,-47.13,8.06,6.52,7.81,-8.79
9740,-26.25,-23.87,17.75,7.71,7.76,-7.39
9750,-99.87,-18,21.81,8.38,8.11,-5.79
9760,-145.31,-21.62,22.44,8.38,8.11,-5.79
9770,-145.62,-30.94,22.12,9.21,8.87,-3.32
9780,-104.75,-42.44,24.87,9.75,9.4,-3.86
9790,-60.31,-52.44,30.75,9.76,10.13,-6.59
9800,-57.5,-62.19,40.69,8.76,11.25,-6.37
9810,-114.37,-76.25,59.38,8.76,11.25,-6.37
9820,-178.69,-100.31,96.69,7.92,11.54,-5.79
9830,-177.06,-112.37,140.37,8.99,6.66,-6.56
9840,-128.81,-118.62,173.31,9.51,5.16,-8.25
9850,-107.25,-122.19,187.69,10.21,4.21,-9.35
9860,-120.5,-118.62,186.56,10.21,4.21,-9.35
9870,-134.69,-103.62,175.44,10.64,3.41,-9.96
9880,-136.06,-80.44,160.06,10.93,4.11,-8.6
9890,-132.69,-61.69,144.5,10.49,5.47,-7.09
9900,-115.56,-56.56,140.56,8.07,7.1,-6.66
9910,-98.12,-77.56,155.31,8.07,7.1,-6.66
9920,-87.87,-108.5,179.94,7.81,7.13,-7.13
9930,-78.31,-136.06,207.06,4.81,4.59,-9.56
9940,-68.62,-159.94,231.25,4.2,3.95,-9.83
9950,-47.38,-174,252,3.76,3.15,-10.39
9960,-5.87,-177.69,269.5,3.76,3.15,-10.39
9970,52.5,-166.87,282.25,2.9,0.57,-11.43
9980,116.81,-148.81,285.87,3.29,-2.64,-13.4
9990,167.31,-136.69,278.87,3.36,-4,-14.53
10000,195,-115.5,260.31,2.78,-5.68,-15.13
