timestamp,gyrox,gyroy,gyroz,accx,accy,accz
10,-20.31,-13.69,-80.37,-2.26,-3.03,-0.26
20,-18,-22.75,-67.37,-2.71,-3.31,0.13
30,-11.69,-27.44,-50.56,-3.14,-3.51,0.27
40,-8.44,-25.94,-34.5,-3.35,-3.53,0.12
50,-9.5,-23.25,-23.12,-3.31,-3.93,-0.54
60,-8.25,-25.87,-13.13,-3.5,-4.36,-0.76
70,-3.31,-37.88,3.5,-3.62,-4.92,-0.84
80,1.69,-53.44,30.94,-3.8,-5.29,-0.69
90,6.81,-67.81,67.56,-3.54,-3.88,0.65
100,16.25,-74.37,96.81,-2.33,-2.26,1.25
110,24.81,-73.06,107.44,-1.15,-0.98,1.26
120,20.25,-68,100.87,-0.71,0.07,2.41
130,12.69,-51.81,91.56,-0.68,0.08,3.03
140,13.25,-25.12,82.81,0.12,0.46,3.08
150,20.06,-1.69,68.5,0.28,-0.07,2.63
160,26.69,13.63,60.63,0.25,-1.34,2.12
170,34.25,27.5,59.75,0.21,-1.9,1.69
180,42.25,38.19,66.44,0.08,-2.43,0.78
190,42.25,36.19,80.87,0.48,-2.53,-0.37
200,31.06,18.94,92.5,1.77,-2.64,-0.68
210,17.62,-0.81,99.81,1.83,-3.25,0.71
220,15.81,-6.62,113.06,1.94,-3.69,2.31
230,29.56,7.5,135.62,1.76,-2.49,3.93
240,54.81,38.5,163.06,2.65,-0.3,3.01
250,85.19,66.37,176.56,3.19,1.74,1.49
260,105.31,80.56,174,3.5,3.31,-0.07
270,103.75,85.94,158.87,4.03,5.63,-2.36
280,88.81,71.31,127.81,3.81,6.09,-2.95
290,64.44,50.5,91.31,3.5,6.13,-2.98
300,38.56,36.75,56.44,3.05,5.93,-2.76
310,17.87,28.87,24.87,2.42,4.88,-2.61
320,4.06,25.5,0.13,2.01,4.1,-2.55
330,3.87,21.75,-13.63,1.75,3.43,-2.71
340,19.37,8.63,-17.81,1.65,3.12,-2.88
350,39.31,-12,-16.56,1.41,2.8,-3.07
360,47.13,-34.31,-11.19,1.51,2.94,-2.83
370,37.5,-52.19,-5,1.67,3.24,-2.25
380,16.19,-65.19,-2.56,2.44,4.08,-0.8
390,-9.38,-71.87,-10.5,2.39,3.89,0.37
400,-32.38,-62.06,-22.25,2.3,3.54,1.33
410,-44.25,-48.88,-30.12,2.1,3.38,2.3
420,-42.13,-30.12,-37.06,1.99,3.13,3.03
430,-32.19,-9.19,-44.38,1.92,3.07,2.56
440,-21.81,4.81,-51.94,1.92,3.09,1.93
450,-13.19,9.94,-60.38,1.82,3.06,1.5
460,-9.5,11.06,-68.31,1.49,2.39,0.99
470,-12.56,13.88,-72.87,1.3,2.08,1.07
480,-16.69,20.06,-73.06,1.15,1.97,1.02
490,-19.37,27.56,-70.94,1.22,1.99,0.13
500,-27.19,33.88,-72.19,1.14,1.81,-0.35
510,-41.19,39,-76.81,0.94,1.44,-0.54
520,-51.75,42.25,-80.75,0.74,1.05,-0.68
530,-55.88,41.19,-83.5,0.61,-0.23,-1.47
540,-60.94,35.06,-86.62,0.28,-1.22,-1.53
550,-65,26.06,-84.06,0.17,-1.98,-1.04
560,-56.56,16.62,-74.87,0,-2.52,-0.63
570,-41.88,11.06,-63.94,-0.29,-3.46,-0.46
580,-33,12.69,-52.13,-0.23,-3.77,-1.07
590,-40.31,20,-45.31,-0.54,-4.44,-1.99
600,-63.31,22.81,-35.75,-1.01,-5.27,-2.89
610,-84.25,14.38,-11.31,-1.25,-5.33,-2.79
620,-80.56,-6.19,19.87,-0.61,-4.07,-1.94
630,-53.44,-28.12,40,0.04,-2.73,-1.19
640,-29,-40.38,42.75,0.83,-0.94,-0.36
650,-20.12,-43.13,33.69,1.2,-0.56,-0.07
660,-20.5,-42.44,17.94,1.38,-0.52,0.27
670,-21.94,-37.63,0.94,1.36,-0.81,0.7
680,-22.19,-26.69,-11.38,1.37,-1.98,1.16
690,-22.69,-13.56,-15.69,1.36,-2.34,1.23
700,-22.31,-3.44,-11.69,1.5,-2.43,1.06
710,-17.25,1.06,-3.69,1.81,-1.92,1.15
720,-3.75,1.69,1.5,2.8,-0.39,0.95
730,9.88,0.06,-0.56,3.2,0.09,0.85
740,12.44,-0.69,-9.81,3.56,0.37,1.15
750,11,2.19,-22.06,4.09,0.51,2.38
760,16.31,11.81,-35,4.27,0.53,2.61
770,28,26.5,-47.75,4.43,0.62,2.36
780,36.75,42.94,-59.81,4.62,0.78,1.88
790,39.13,58.06,-73.62,4.89,0.88,0.96
800,44.06,67.12,-89.69,4.66,0.62,0.74
810,57.38,71.62,-103.12,4.62,0.44,0.39
820,78.25,67.75,-109.12,4.43,0.44,-0.07
830,94.31,56.13,-112.37,4.28,-0.33,-1.44
840,92.37,36.94,-110.81,4.44,-0.66,-1.41
850,70.44,16.75,-105.69,4.37,-1.16,-0.84
860,36.63,6.12,-100.37,3.68,-2.02,0.11
870,3.12,9.38,-87.81,2.24,-4.06,2.4
880,-19.12,24.69,-58.94,1.44,-4.35,3.41
890,-25.56,56.13,-15.56,0.97,-3.89,4.1
900,-10.88,96.75,31.19,1.11,-0.41,2.14
910,16.12,130.87,67.5,1.63,1.47,0.82
920,34.63,154.62,85.69,1.98,3.04,-0.62
930,32.19,162.56,82.31,2.5,4.18,-2.78
940,3.81,143.25,56.69,2.74,5.02,-3.3
950,-30.31,118.37,14.81,1.58,3.74,-2
960,-43.44,103.44,-32.38,-0.54,1.29,-1.66
970,-53.94,115.31,-54.31,-1.18,-0.65,-2.95
980,-70.56,123.06,-51.19,-4,-3.38,-3.96
990,-75,118.62,-22,-4.2,-3.16,-4.27
1000,-57.25,100.69,17.5,-3.71,-2.13,-4.34
1010,-28.19,66.06,47.5,-2.89,1.15,-2.34
1020,-7.81,37.13,57.94,-2.57,2.44,-0.56
1030,1.94,25.69,45.06,-2.59,3.08,1.06
1040,10.31,36,15.88,-2.78,3.01,1.71
1050,9.06,66.31,-18.5,-3.97,1.25,0.2
1060,-5.81,102.69,-47,-4.51,0.18,-1.39
1070,-25.5,127.5,-65.25,-5.29,-0.83,-2.52
1080,-34,134.62,-70.56,-6.28,-1.52,-3.62
1090,-27.37,124.44,-60.5,-7.09,-0.83,-5.78
1100,-13.13,101,-44.81,-6.75,-0.04,-7.17
1110,-13.69,74.94,-38.81,-5.91,0.69,-8.49
1120,-39.5,40.75,-58.44,-5.91,-0.46,-9.04
1130,-75.06,-1.37,-85.69,-7.39,-5.01,-6.59
1140,-91.62,-40.44,-95.69,-7.81,-6.95,-5.33
1150,-69.12,-77.94,-82,-7.96,-7.99,-4.72
1160,-33.44,-115.81,-45.75,-7.69,-6.81,-2.54
1170,-3.69,-145.62,2.94,-6.44,-4.2,-1.32
1180,20.44,-160.62,41.44,-5.08,-1.69,-0.65
1190,32.19,-158.56,50.44,-3.93,-0.12,-0.57
1200,23.44,-143.25,32.56,-2.85,-0.38,-0.46
1210,1.75,-123.69,1.44,-2.75,-2,-0.67
1220,-15.13,-109.94,-22.37,-2.58,-3.61,-0.88
1230,-13.44,-108.12,-30.5,-2.54,-5.26,-0.92
1240,3,-113.44,-19.5,-2.4,-6.98,-1.64
1250,16.62,-119.44,6.44,-1.85,-6.9,-2.13
1260,18.56,-129,38,-1.15,-6.36,-2.22
1270,13.31,-139.94,67.87,0.23,-4.17,-0.87
1280,6.81,-147.62,92.81,1.29,-2.88,-0.15
1290,13.31,-149,106.94,1.64,-2.32,-0.29
1300,21.69,-145.37,109.44,2.1,-1.9,-0.18
1310,24,-141.62,111.12,2.92,-0.69,0.83
1320,31.12,-140.81,109.37,3.39,-0.26,0.85
1330,37.38,-138.81,106.5,3.68,-0.06,0.85
1340,32.38,-126.06,98.37,3.74,-0.17,0.81
1350,32.38,-126.06,98.37,3.63,-0.73,0.83
1360,17.56,-109.31,89,3.66,-1.25,0.7
1370,-2.5,-87.19,82.25,3.44,-1.76,0.84
1380,2.94,-86.19,88.06,3.24,-1.9,1.2
1390,19.87,-90,103.25,3.78,-0.19,1.9
1400,19.87,-90,103.25,4.21,0.66,2
1410,40.25,-95.37,119.19,4.44,1.18,2.07
1420,53.94,-80.62,119.31,4.5,1.33,2.45
1430,43.31,-56.31,104.81,3.88,0.59,2.25
1440,28.87,-23.69,90.87,3.38,-0.02,1.56
1450,28.87,-23.69,90.87,2.8,-0.3,0.82
1460,19.12,4.25,88.87,2.7,1.54,-0.57
1470,31.94,20.81,119.19,3.33,3.41,-0.5
1480,50.69,1.75,133.94,3.95,5.15,0.1
1490,79.87,-23.25,132.44,4.92,6.71,0.89
1500,79.87,-23.25,132.44,5.13,6.64,1.8
1510,110.87,-40.81,101.06,4.06,4.71,2.1
1520,94.31,-29.94,-5.62,2.8,2.41,2.39
1530,62.5,6.37,-27.37,1.35,0.45,2.59
1540,44.94,56.63,-18.12,1.3,1.07,1.65
1550,44.94,56.63,-18.12,0.98,2.24,0.32
1560,52.44,100.31,5.37,1.5,3.93,-2.8
1570,49.88,132.56,44.31,2.76,7.24,-3.93
1580,30.31,92.31,36.19,3.1,8.08,-2.63
1590,43.81,34.25,11.44,3.54,8.48,-1.01
1600,43.81,34.25,11.44,3.54,8.48,-1.01
1610,79.06,-19.25,-20.62,3.41,8.45,0.6
1620,103.44,-50.13,-90.19,2.49,6.36,2.35
1630,78.31,-15.44,-114.62,1.98,5.48,2.09
1640,42.25,27.19,-125.06,1.73,5.12,1.39
1650,42.25,27.19,-125.06,1.73,5.12,1.39
1660,17,58.69,-125.19,1.95,5.91,-0.24
1670,3.87,62.56,-131.44,3.37,7.24,-0.72
1680,3.81,41.38,-158.94,3.07,3.78,-0.51
1690,-9.38,30.69,-194.37,2.37,1.24,-0.23
1700,-9.38,30.69,-194.37,2.37,1.24,-0.23
1710,-38.13,37.56,-224.56,1.5,-1.04,-0.29
1720,-78.37,71.37,-224.87,-0.34,-4.63,-0.4
1730,-71.56,72.44,-193.69,-0.35,-4.77,-1.03
1740,-42.19,56.19,-156.81,-0.6,-4.7,-2
1750,-42.19,56.19,-156.81,-0.6,-4.7,-2
1760,-37.94,29.69,-91.69,-0.32,-4.3,-3.04
1770,-37.94,29.69,-91.69,-0.02,-5.15,-3.44
1780,-72.37,24.12,-80.19,-0.5,-6.18,-3.04
1790,-116.56,13,-75.44,-1.07,-6.92,-2.39
1800,-104.81,-3.75,-50.88,-1.07,-6.92,-2.39
1810,-73.06,-18.12,-13.5,-1.07,-5.84,-0.38
1820,-33.63,-21.12,13.88,0.06,-2.61,-0.88
1830,-10,-17.75,19.62,0.17,-1.55,-2.16
1840,-19.5,-12.75,8.13,-0.01,-1.99,-1.86
1850,-48.31,-9.19,-8.06,-0.01,-1.99,-1.86
1860,-67.06,-9.06,-18,-0.23,-2.86,-1.09
1870,-64.25,-10.19,-16.94,-1.15,-4.3,-0.46
1880,-53.13,-10.56,-5.44,-0.89,-3.34,-0.12
1890,-38.38,-12.75,11.38,-0.51,-1.76,0.13
1900,-10.19,-18.12,21.5,-0.51,-1.76,0.13
1910,15.31,-21.87,15.5,0.01,-0.37,-0.1
1920,16.81,-20.87,-7.75,0.29,-1.17,-0.42
1930,-2.81,-13.38,-37.63,-0.28,-3,-0.39
1940,-21.31,-1.44,-55.81,-1.63,-6.4,-2
1950,-28.44,7.06,-55.19,-1.63,-6.4,-2
1960,-30.94,4.87,-34.44,-2.26,-7.34,-2.68
1970,-27.5,-12.56,4,-1.96,-6.03,-1.81
1980,-10.06,-35.25,42.13,-1.13,-3.54,-1.04
1990,12.44,-47.44,60.25,-1.17,-3.21,-1
2000,17.62,-47.63,61.56,-1.17,-3.21,-1
2010,7.56,-39.38,59.25,-1.31,-3.2,-1.01
2020,-2.31,-31.94,60.13,-1.33,-4.04,-2.14
2030,-8.81,-33.19,65.12,-1.36,-4.59,-2
2040,-17.75,-40.5,73.31,-1.73,-5.07,-1.58
2050,-27.37,-44.94,86.94,-1.73,-5.07,-1.58
2060,-26.62,-46,107.69,-2.06,-5.07,-1.37
2070,-7.56,-51,130.06,-1.16,-1.04,-0.45
2080,27.75,-60,146.12,-0.09,0.7,-0.13
2090,65.06,-68.87,145.94,1.12,2.68,-0.14
2100,88.87,-67.75,123.62,1.12,2.68,-0.14
2110,89.75,-46.44,83.81,0.45,1.96,-0.92
2120,67.94,-13.06,48.06,-0.51,-1.52,-4.09
2130,39.88,-6.56,34.88,-1.55,-4.24,-4.5
2140,24.62,-27.06,41.56,-1.35,-4.55,-3.13
2150,32.25,-66.31,68.44,-1.35,-4.55,-3.13
2160,60.25,-109.37,106.37,-0.62,-3.63,-1.05
2170,91.94,-142.12,136.56,2,0.62,3.13
2180,120.87,-155.87,153.12,2.57,1.71,3.17
2190,137.56,-130.62,154.56,2.89,2.38,2.69
2200,133.62,-91.25,145.06,2.89,2.38,2.69
2210,108.06,-39.06,130.19,3.23,3.59,0.97
2220,76.81,2.06,111.56,3.09,3.24,0.05
2230,57.19,26.44,89.56,2.91,2.76,-1.39
2240,48.44,19.31,73.06,3.01,2.34,-0.63
2250,47.94,-21.12,63.19,3.01,2.34,-0.63
2260,56.38,-56.94,56.69,3.06,1.9,0.14
2270,55.5,-79.19,53.94,2.86,1.58,1.05
2280,42.38,-84.5,53.94,2.96,1.2,1.93
2290,26.12,-76.56,58.88,2.78,1.25,2.87
2300,15.81,-59.19,68.37,2.73,1.88,3.31
2310,19.69,-35.25,73.31,2.83,2.73,3.38
2320,27.56,-8.06,69.5,2.87,3.63,3
2330,26.94,12.13,56.44,3.02,4.77,1.52
2340,21.06,21.25,37.25,2.88,4.88,1.28
2350,20.87,21.44,16.94,2.76,4.72,1.22
2360,23.69,17.44,-0.31,1.96,3.63,1.18
2370,20.12,17.87,-10.06,1.46,3.16,1.31
2380,13.56,26.56,-9.94,1.11,3.29,1.45
2390,15.63,41.38,-2,1.04,4.12,1.39
2400,26.06,61.63,2.62,1.85,6.39,0.16
2410,30,76.69,-7.31,2.33,7.19,-0.82
2420,18.31,80.81,-31.75,2.73,7.45,-2.14
2430,-1.5,65,-63.19,2.59,7.07,-2.46
2440,-12.25,40.25,-91.31,1.47,4.56,-1.72
2450,-13.63,16.62,-106.87,0.96,3.28,-1.2
2460,-20.75,5.25,-108.25,0.57,2.3,-0.66
2470,-34.31,2.87,-99.12,0.1,1.54,0.77
2480,-41.75,9.19,-85.56,0.09,1.85,1.16
2490,-37,19.37,-72,0.56,2.64,0.67
2500,-32.94,26.44,-66.12,1.06,3.49,-0.23
2510,-41.81,27.75,-73.81,1.39,3.39,-0.85
2520,-54.44,27.12,-87.94,1.4,2.68,-0.63
2530,-58.19,26.37,-100.69,1.36,1.88,-0.54
2540,-59.5,26.5,-111.31,1.2,0.72,-0.57
2550,-67.25,29.44,-117.12,0.33,-2.13,-0.57
2560,-79.87,35.31,-112.06,-0.26,-3.23,-0.23
2570,-84.37,39.63,-90.25,-0.65,-3.63,0.33
2580,-66.06,39.69,-54.88,-0.72,-3.4,0.55
2590,-33.25,32.63,-21.94,0.81,-1.1,-0.35
2600,-19.12,27.87,-8.31,1.12,-0.33,-0.8
2610,-36.69,32.81,-9.63,1.37,0.34,-0.7
2620,-60,43.81,-21.12,1.31,0.05,-1.31
2630,-77.37,55.88,-35.31,1.09,-0.3,-1.83
2640,-87.06,68,-45.88,1.1,-0.63,-2.51
2650,-92.31,65.75,-57.19,1.12,-1.1,-3.23
2660,-84.94,46.31,-68.87,0.85,-2.85,-3.44
2670,-63.31,18.25,-75.12,0.62,-3.86,-3.21
2680,-50.94,-9.81,-73.12,0.5,-4.68,-2.35
2690,-52.81,-26.69,-62.19,0.39,-5.14,-1.1
2700,-55.19,-32.19,-45.81,0.62,-5.08,0.8
2710,-53,-23.5,-30.37,0.66,-4.95,1.15
2720,-51,-4.44,-14.56,0.86,-4.57,1.33
2730,-46.94,18.06,0.31,1.25,-3.7,0.99
2740,-36.38,34.25,8.19,2.41,-1.55,-0.81
2750,-24.19,35.81,4.37,2.88,-1.01,-1.55
2760,-15.63,23.62,-7.25,3.3,-0.78,-1.92
2770,-11.81,3.81,-21.87,3.96,-1.44,-0.97
2780,-12.75,-13.25,-34.19,4.12,-2.23,-0.04
2790,-15,-21.06,-40.31,4.15,-2.92,0.78
2800,-16.75,-17.87,-38.25,4.25,-3.42,1.35
2810,-17.19,-7.44,-30.31,4.13,-4.02,2.3
2820,-15.13,9.5,-14.75,4.19,-3.5,2.78
2830,-5.5,28.31,3.81,4.7,-2.3,3.14
2840,15.5,43.44,11.88,4.99,-1.08,3.21
2850,38.31,58.81,7.56,5.13,0.28,1.54
2860,46.06,74,-6,4.7,0,0.56
2870,32.81,85.12,-20.87,3.9,-0.84,-0.07
2880,11.25,91.94,-24.94,1.79,-2.49,-0.31
2890,-4.44,92.75,-14.06,1.01,-2.59,0.17
2900,-6,87.19,8.56,0.46,-1.85,1.08
2910,13.13,85.37,33.31,0.09,-0.45,1.72
2920,42.19,95,48.5,0.47,2.53,1.12
2930,63.44,118.06,43.31,0.34,3.18,0.46
2940,82.87,153.5,21.75,-0.03,3.28,-1.99
2950,97.37,171,-11.63,-0.01,2.49,-5.1
2960,95.12,152.31,-57.13,-2.64,-3.03,-8.96
2970,83.31,87.69,-78,-3.82,-5.21,-7.36
2980,70.37,7.56,-47.5,-4.2,-5.48,-3.83
2990,71.19,-42.19,11.63,-3.76,-1.9,1.83
3000,77,-40.31,67.31,-2.81,0.69,2.19
3010,63.75,0.06,95.69,-1.76,3.06,1.69
3020,32.19,58.38,87.12,-1.34,4.59,0.56
3030,1,96.12,52.63,-1.5,4.33,-2.5
3040,-19.69,95.75,10.06,-2.69,3.08,-2.43
3050,-20.44,72.31,-18.94,-3.45,1.95,-1.85
3060,-1.81,44,-29.19,-3.73,1.37,-1.14
3070,17.37,25.06,-31.94,-3.84,0.97,-0.39
3080,21.87,21.37,-33.75,-3.63,1.16,-0.41
3090,11.94,28.19,-38.56,-3.56,1.02,-0.92
3100,-5.25,37,-50.69,-3.62,0.28,-1.81
3110,-24.37,37.56,-62.38,-4.22,-2.03,-2.38
3120,-33.5,25.75,-62.06,-4.42,-2.63,-2.07
3130,-24.75,2,-48.63,-4.23,-2.71,-1.48
3140,-5.19,-22.87,-29.94,-3.35,-1.33,0.07
3150,10.44,-35.81,-16.5,-3.02,-0.46,0.56
3160,14.69,-32.5,-14.75,-2.55,0.21,0.67
3170,12.88,-19.25,-25.37,-2.55,0.27,0.14
3180,8.19,-3.94,-42.5,-2.63,-1.01,-2.65
3190,-0.81,7.62,-57.5,-3.08,-2.25,-4.03
3200,-13.63,0.31,-68.31,-3.71,-3.7,-4.51
3210,-25.69,-20.25,-67.19,-4.28,-4.97,-4.46
3220,-27,-48.69,-48.81,-4.79,-6,-3.44
3230,-24.31,-74.06,-21.81,-4.84,-6,-2.79
3240,-24.44,-90.12,4.06,-4.64,-5.64,-1.9
3250,-18.94,-101.25,26.94,-4.42,-5.17,-1.3
3260,-11.81,-103.75,43.81,-4.2,-4.51,-1.11
3270,-15.63,-96.62,57.88,-3.73,-4.09,-1.58
3280,-24.81,-86,70.5,-3.29,-3.92,-2.33
3290,-31.81,-81.12,78.69,-2.93,-4.21,-3.7
3300,-40,-84.06,88.75,-2.41,-4.09,-3.95
3310,-51.31,-93.06,103.81,-1.87,-3.84,-4.15
3320,-61.69,-105.62,118.94,-1.08,-3.54,-4.01
3330,-65.06,-125.75,130.56,0.66,-2.22,-1.77
3340,-54.63,-152.62,139.69,1.77,-1.34,-0.14
3350,-34.25,-173.75,140.25,2.44,-0.93,1.04
3360,-17.31,-177.44,126.75,2.81,-1.16,1.59
3370,-11.06,-156.31,109.75,3.03,-1.89,2.1
3380,-6.87,-118.44,100.06,3.35,-2.39,1.47
3390,-2.06,-93,98.06,3.62,-2.74,0.81
3400,-0.62,-81.31,103.31,4.24,-2.27,0.86
3410,-1.5,-77.44,113.69,4.63,-1.63,1.46
3420,6.5,-77.5,120.75,5.02,-0.82,2.12
3430,30.44,-79.31,120.44,5.53,0,2.5
3440,64.19,-80,107.44,5.75,0.5,2.76
3450,94.69,-72.75,84.75,5.36,-0.14,2.38
3460,105.44,-57.13,62.38,4.75,-0.98,2.26
3470,93.31,-35.44,52.88,4.09,-1.5,2.38
3480,78.37,-11.13,60.81,3.61,-0.45,1.63
3490,81.62,4.37,78.12,3.86,0.82,0.7
3500,96.56,5.37,95.5,4.26,2.17,-0.01
3510,102.19,-7.87,102.12,4.55,3.25,-0.19
3520,93,-30.19,96.12,4.85,4.65,1.5
3530,80.19,-51.25,81,4.43,4.64,2.46
3540,75.19,-65.12,65,3.97,4.18,2.27
3550,67.62,-75.37,57.31,2.55,4.95,2.81
3560,37.31,-38.81,62.75,2.83,6.28,2.86
3570,3.25,7.75,73.62,2.87,7.87,2.16
3580,-11.19,44.38,77.5,3.16,9.35,1.09
3590,-10.44,69.75,65.62,3.79,11.46,-0.04
3600,-1,83.25,34.56,4.14,11.91,-0.27
3610,17.75,84.06,-12.56,4.27,11.48,-0.78
3620,38.38,76.81,-69.81,4.03,10.19,-1.56
3630,44.63,59.44,-123.06,2.85,5.65,-1.87
3640,30.25,53.56,-162,2.26,3.75,-1.84
3650,5.06,63.13,-179.81,1.55,2.13,-1.98
3660,-23.5,82.94,-182.37,0.89,-0.01,-3.14
3670,-48,93.94,-169.62,0.74,-0.24,-3.15
3680,-59.13,84.31,-149.87,0.94,-0.09,-3
3690,-25.75,28,-120.19,1.33,0,-2.69
3700,-21.12,5.12,-121.56,2.08,-1.03,-2.28
3710,-46.88,-2.75,-131.5,1.73,-2.49,-1.84
3720,-46.88,-2.75,-131.5,0.82,-4.45,-1.68
3730,-136.69,35.31,-117.25,0.14,-6.28,-1.92
3740,-164.5,44,-70.56,-2.24,-8.25,-1.42
3750,-133,22.19,0.69,-2.05,-6.75,-0.16
3760,-41.63,-14.69,59,-0.85,-3.39,1.47
3770,41.44,-40.94,79.81,0.4,-0.03,2
3780,63.5,-37.13,55.75,2.46,4.8,1.44
3790,29.25,0,-8.75,2.65,5.12,0.77
3800,-42.5,49,-80.12,1.51,2.91,-0.34
3810,-42.5,49,-80.12,-0.72,-3.36,-1.05
3820,-137.87,114.75,-129.25,-2.25,-5.48,-1.56
3830,-118.44,103.87,-104.12,-2.22,-6.42,-2.08
3840,-66.75,78.06,-70.37,-2.68,-6.96,-3.25
3850,-22.12,34.88,-34.69,-2.78,-7.13,-5.8
3860,-4.81,-13.56,0.25,-2.43,-6.14,-4.96
3870,-2.69,-47.94,25.69,-1.89,-4.68,-3.3
3880,-6.31,-59.44,35,-1.36,-3.4,-1.66
3890,-12.38,-51,30.75,-0.78,-1.69,0.7
3900,-16.19,-31.62,18.75,-0.5,-1.38,1.05
3910,-16.19,-31.62,18.75,-0.45,-1.26,0.86
3920,-15.38,-11.63,5.06,-0.35,-1.46,-0.12
3930,2.44,-7.19,-14.5,-0.4,-1.75,-0.3
3940,9.69,-12.25,-19.37,-0.4,-2.11,-0.32
3950,6.69,-13.38,-21.06,-0.48,-2.56,-0.17
3960,6.69,-13.38,-21.06,-0.78,-3.48,0.34
3970,-0.13,-9.88,-18.56,-0.98,-3.72,0.36
3980,4.81,0.5,3.44,-0.99,-3.62,0
3990,9.38,2.44,17.25,-0.9,-3.18,-0.73
4000,6.31,2.44,28.31,-0.74,-1.35,-1.71
4010,6.31,2.44,28.31,-0.54,-0.56,-2.16
4020,1.06,2.94,31.12,-0.52,-0.29,-2.74
4030,-11.44,-6,1.37,-0.71,-0.57,-3.13
4040,-14.94,-14.63,-15.56,-2.09,-3.65,-2.97
4050,-12,-22.44,-15.94,-2.89,-5.04,-2.59
4060,-12,-22.44,-15.94,-3.43,-5.89,-2.36
4070,-2.31,-28.12,2.37,-2.87,-5.14,-2.98
4080,10.25,-35.38,48.31,-2.46,-4.43,-3.08
4090,10.06,-43.06,54,-1.82,-3.95,-2.94
4100,11.13,-51,47.5,-1.72,-4.65,-2.57
4110,11.13,-51,47.5,-1.72,-4.65,-2.57
4120,23.62,-60.81,48.63,-1.88,-6.12,-0.53
4130,65.56,-81.06,77,-1.65,-7.02,0.67
4140,69.5,-76.37,101.75,-1.61,-7.19,1.23
4150,63.5,-40.44,136.75,-1.42,-5.86,0.81
4160,63.5,-40.44,136.75,-1.42,-5.86,0.81
4170,55.5,1.75,174.69,-0.94,-4.19,-0.52
4180,76.44,-8.75,224.19,1.34,0.7,-4.15
4190,88.87,-55.38,214.19,2.86,4.6,-5.12
4200,80.25,-103.56,184.94,3.09,5.39,-3.45
4210,80.25,-103.56,184.94,3.09,5.39,-3.45
4220,66.37,-135.31,145.81,2.95,5.38,-0.9
4230,74.75,-137.81,86.25,2.36,2.99,3.42
4240,77.69,-123.44,75.69,2.37,2.18,2.91
4250,66.75,-92.19,76.06,2.11,1.74,3.06
4260,66.75,-92.19,76.06,2.11,1.74,3.06
4270,54.25,-47.81,78.12,2.83,2.44,2.62
4280,52.56,-23.56,74,2.92,2.09,1.41
4290,54.25,-17.56,68.06,2.83,1.82,1.86
4300,53.25,-18.25,65.12,2.82,3,3.15
4310,56.25,-11.75,67.19,2.82,3,3.15
4320,73.12,2.81,66.25,3.29,4.23,2.26
4330,85.69,14.81,50.31,2.88,3.79,-0.64
4340,76.69,17.19,27.75,2.7,3.54,-0.55
4350,51.44,13.38,16.06,2.26,3.73,0.02
4360,26.75,6.69,15.88,2.26,3.73,0.02
4370,15,2.62,19.37,2.48,4.35,0.49
4380,14.88,0.44,19.44,3.42,7.31,2.52
4390,23.19,3.87,9.81,3.72,8.15,2.43
4400,42.31,16.06,-9.94,4.07,8.5,1.42
4410,60.13,32.44,-39.88,4.07,8.5,1.42
4420,57.19,49.5,-78.44,3.27,6.13,-0.8
4430,35,72.94,-108.5,1.95,3.42,-2.79
4440,10.13,95.06,-116.12,2.15,3.56,-4.22
4450,-15.94,89.56,-109.06,2.77,4.15,-3.79
4460,-15.81,53.5,-102.69,2.77,4.15,-3.79
4470,12.75,0.56,-108.81,2.91,4.32,-2.91
4480,32.5,-39.94,-123.94,3.17,2.13,0.87
4490,26.5,-55.63,-143.06,2.71,0.48,0.8
4500,3.69,-45.38,-160.19,1.93,-1.3,0.67
4510,-35.94,-13.75,-167.94,1.93,-1.3,0.67
4520,-78.56,24.19,-158.31,1.15,-2.55,0.66
4530,-93.31,55.44,-134.06,0.82,-1.6,-1.05
4540,-79.69,68.87,-107,1.05,-0.49,-2.09
4550,-47.81,57.31,-89.25,1.34,0.29,-3.04
4560,-19.44,28.44,-86.94,1.34,0.29,-3.04
4570,-14.88,-1.75,-96.44,1.29,-0.47,-2.52
4580,-32.88,-23.5,-107.44,1,-2.61,-0.38
4590,-58.69,-30.69,-113.87,-0.03,-4.75,1.04
4600,-88.19,-21.62,-109.06,-0.32,-4.77,1.5
4610,-111.37,-1,-89.75,-0.32,-4.77,1.5
4620,-109.87,18.75,-61.94,-0.16,-4.03,1.35
4630,-82.75,25.62,-40.31,1.06,-1.11,-0.28
4640,-54.5,18.62,-32.56,1.24,-1.24,0.09
4650,-43.06,8.94,-39.63,1,-2.04,0.7
4660,-47.25,6.81,-53.56,1,-2.04,0.7
4670,-54.06,15.88,-62.63,0.84,-2.96,0.91
4680,-58.5,30.5,-63.5,-0.15,-5.32,-1.12
4690,-68.62,45.25,-55.5,-0.21,-4.95,-1.37
4700,-81.75,57.25,-36,0.59,-3.09,-1.8
4710,-77.12,50.44,-14.25,0.59,-3.09,-1.8
4720,-47.38,28.94,-3.25,1.01,-2.34,-2.04
4730,-21,7.37,-4.87,1.15,-2.48,-1.07
4740,-19.19,-3.56,-12.88,1.16,-3.05,-0.01
4750,-27.56,-2.69,-16.94,1.34,-3.1,-0.05
4760,-28.87,5.12,-13.31,1.34,-3.1,-0.05
4770,-24.69,11.63,-7.31,1.42,-2.84,-0.15
4780,-21,14.75,-1.75,2.23,-1.32,0.42
4790,-12.69,14.31,-1.56,2.23,-1.32,0.42
4800,2.87,13.44,-8.69,2.44,-1.19,0.64
4810,23.56,14.5,-16.06,2.77,-0.93,0.57
4820,42.94,17.75,-20.25,3.08,-0.52,0.24
4830,50.19,24.12,-26.94,3.51,-0.54,-1.14
4840,38.56,26.81,-35.38,3.34,-0.99,-1.27
4850,17.44,26.81,-39.25,3.27,-1.37,-1.23
4860,2.81,22.75,-37.19,2.58,-2.48,-0.61
4870,-3.31,12.44,-28.19,2.61,-2.59,0.2
4880,-5.25,3.37,-15.13,2.37,-2.56,1.22
4890,-1.62,3.56,-1.44,2.23,-2.23,2.1
4900,9.81,13.88,12.88,2.57,-0.35,2.69
4910,25.5,29.5,21.94,2.58,0.71,2.57
4920,38.19,48.69,20.19,2.46,1.56,2.25
4930,45.19,72,8.44,2.81,2.18,1.2
4940,41.5,92.12,-14.88,1.77,0.94,-0.92
4950,25.69,110.62,-40,0.53,-0.39,-2.16
4960,3.69,125.5,-50,0.51,-1.52,-3.77
4970,-16.94,121.25,-43.63,-0.38,-1.86,-4.37
4980,-23.37,104.81,-29.62,-2.01,-2.35,-6
4990,-24.19,87.31,-4.37,-1.51,-1.77,-7.2
5000,-34.81,61.06,17.69,-0.36,-0.98,-8.08
5010,-62.13,14.88,19.75,-0.39,-1.93,-5.21
5020,-99.94,-26.44,11.56,-1.05,-3.1,-2.49
5030,-119.44,-53.19,11,-1.92,-3.85,-0.05
5040,-112.75,-63.44,30,-2.58,-3.65,1.87
5050,-88.44,-62.19,62,-1.7,1.06,5.82
5060,-38.56,-56,91.37,-0.1,4.89,7.11
5070,31.19,-39.5,90,1.46,8.02,7.11
5080,81.06,5.87,30.56,2.37,9.03,5.52
5090,74.87,62.69,-71.62,0.14,2.48,1.16
5100,17.69,113.12,-160.5,-1.67,-1.76,0.34
5110,-37.81,153.37,-198.25,-3.75,-5.03,-0.75
5120,-61.75,156.37,-183.12,-6.23,-8.32,-1.96
5130,-42.06,131.44,-128.81,-6.78,-8.11,-3.02
5140,-9.31,98.69,-55.25,-6.43,-6.51,-3.88
5150,4.12,64.06,9.94,-5.66,-4.08,-3.63
5160,5.06,36.44,45.56,-4.29,0.04,-3.01
5170,7.44,16,52.63,-3.8,0.98,-2.84
5180,6.5,-0.88,36.63,-3.67,0.88,-2.68
5190,-5,-13.75,10.44,-3.94,-0.21,-2.06
5200,-17.94,-24.06,-8.5,-5.1,-2.8,0.04
5210,-13.38,-29.81,-7.87,-5.23,-2.92,0.5
5220,10.13,-29.75,9.44,-4.91,-2.1,0.04
5230,29.69,-22.56,27.56,-4.11,-0.75,-0.95
5240,28.69,-13.06,29.87,-3.07,-0.08,-3.21
5250,10.56,-7.56,13.38,-3.16,-1.49,-4.07
5260,-14.94,-8.5,-8.75,-3.65,-3.68,-4.68
5270,-33.44,-17.44,-17.62,-5.03,-7.41,-5.18
5280,-35,-38.88,1.31,-4.7,-7.45,-5.06
5290,-17.56,-70,45.69,-3.62,-5.91,-4.57
5300,5.69,-106.31,90.19,-2.87,-4.15,-3.6
5310,8.88,-126.87,118.44,-0.61,-0.03,-1.08
5320,-4.62,-132,122.56,-0.31,0.93,0.24
5330,-11.38,-125.19,105.87,-0.03,1.25,0.73
5340,-10.31,-109.31,80.31,0.16,0.92,0.55
5350,-15.69,-93.31,56.06,0.3,-0.9,0.38
5360,-30.44,-78.56,38.13,0.19,-2.51,-0.05
5370,-45.94,-64.81,27.56,-0.15,-4.06,-0.56
5380,-53.25,-55.06,30.94,-0.48,-5.57,-1.59
5390,-42.19,-56.81,48.44,0,-5.22,-1.55
5400,-13.5,-75.94,76.12,0.64,-4.12,-1.24
5410,17.5,-96.81,101.31,1.38,-2.83,-0.98
5420,36.56,-107.62,116,2.65,-0.94,-0.74
5430,38.88,-111.44,119.12,2.97,-0.46,-0.58
5440,29.19,-116.19,116.56,3.19,-0.37,-0.1
5450,15.44,-118.25,111.56,3.38,-0.31,0.74
5460,3.81,-112.62,106.31,3.18,-0.3,3.25
5470,3.19,-102.75,100.87,2.9,-0.1,4.07
5480,21.87,-84.75,100.31,3.15,0.75,4.13
5490,56.13,-64.44,103.37,3.47,1.81,3.7
5500,88.44,-48.81,98.31,4.03,3.21,2.23
5510,100.69,-35.75,84.19,4.01,3.34,2.09
5520,90.81,-25.12,64.94,4.08,3.43,2.26
5530,73.06,-12.25,43.75,3.02,1.42,2.44
5540,56.25,2,24.37,2.26,0.63,2.13
5550,40.25,19.25,24.12,1.99,0.83,1.33
5560,28.81,37.63,39.75,2,1.71,0.45
5570,22.06,49.38,55.81,2.54,4.64,-0.16
5580,24.75,51.5,66,3.37,6.44,-0.6
5590,43.19,38.63,62.69,3.98,7.79,-1.11
5600,59.13,13.19,36.69,3.93,8.23,-1.05
5610,52.06,-8.5,-1.25,3.55,7.47,0.67
5620,5.87,2.44,-68.31,3.22,6.28,1.24
5630,5.87,2.44,-68.31,2.47,4.86,1.36
5640,-13.75,27.69,-85.5,1.97,3.68,-0.28
5650,-20.19,54.81,-84.06,1.85,3.9,-1.31
5660,-19.87,42.56,-79.94,2.31,4.68,-1.98
5670,-21.69,22.31,-86.19,2.71,5.63,-1.85
5680,-22.81,9.75,-104.5,3.38,6.3,-0.68
5690,-26.06,5.19,-130.75,3.38,5.66,0.08
5700,-35.44,10.44,-155.19,3.06,4.4,0.65
5710,-52.81,25.25,-169.06,2.77,3.05,0.83
5720,-63.25,42,-172.81,2.07,1.03,0.94
5730,-60.25,56.19,-172.44,1.8,0.35,0.34
5740,-55.69,63.94,-170.75,1.46,-0.46,-0.59
5750,-59.75,64.81,-165.12,1.14,-1.23,-1.4
5760,-68.69,60.25,-156.75,0.03,-3.3,-2.27
5770,-80.56,51.25,-138.87,-0.26,-4.32,-2.76
5780,-86.25,35.38,-112.37,-0.41,-4.72,-2.59
5790,-83.12,21.56,-87.87,-0.78,-5.88,-2.35
5800,-80.06,9.81,-62.06,-1.04,-6.33,-2.08
5810,-79.19,3.69,-30.81,-1.43,-6.53,-1.7
5820,-75.62,3.31,5.37,-1.62,-6.1,-1.51
5830,-66.12,2.5,35.06,-0.62,-3.03,-1.83
5840,-52.69,-3.12,50.13,-0.16,-1.31,-1.56
5850,-39.94,-8.31,47.75,0.39,0.2,-1.39
5860,-32.5,-11.81,27.81,0.91,1.43,-1.2
5870,-30,-13.38,-5.87,1.39,1.93,-0.57
5880,-34.56,-9.88,-43.44,0.95,0.62,-0.37
5890,-47.69,1.25,-69.44,0.37,-1.17,-0.41
5900,-56.94,11.56,-77.5,-0.77,-4.41,0.02
5910,-50.38,16.62,-67.25,-1.18,-5.26,-0.01
5920,-34.63,18.94,-45.25,-1.35,-5.54,-0.37
5930,-17.56,16.25,-19.12,-1.3,-5.13,-0.8
5940,-6.19,8.94,-0.19,-0.53,-3.03,-1.91
5950,-4.69,-1.12,7.56,-0.33,-2.12,-1.92
5960,-12.69,-8.25,6.69,-0.22,-1.65,-1.77
5970,-23.94,-11.69,1.5,-0.1,-1.42,-1.37
5980,-29.31,-12.56,-4.56,-0.28,-1.7,-0.55
5990,-28.56,-11.44,-8.13,-0.44,-2.06,-0.57
6000,-26.87,-9.81,-7.87,-0.41,-2.25,-0.6
6010,-24,-9.5,-6.31,-0.41,-2.37,-0.48
6020,-16.62,-7.25,-4.19,-0.43,-2.3,-0.25
6030,-4.25,-5.44,-3,-0.33,-2.09,-0.29
6040,7.62,-2.87,-4.06,-0.46,-2.17,-0.62
6050,12.13,1.06,-3,-0.87,-2.71,-1.99
6060,8,2.56,1.31,-1.07,-2.92,-2.59
6070,1.5,-0.62,7.81,-1.16,-2.99,-2.93
6080,-0.81,-8.56,15.56,-1.14,-2.95,-3.09
6090,2.31,-20.75,22.69,-0.9,-2.42,-2.38
6100,9.44,-32.13,26.75,-0.69,-2.19,-1.58
6110,16.19,-36.38,24.94,-0.47,-2.17,-0.65
6120,23.94,-32.75,18,-0.27,-2.45,0.14
6130,35.75,-24.81,9.88,-0.4,-3.83,1.14
6140,50.31,-10.94,5.62,-0.55,-4.43,1.41
6150,65.62,5.37,6.19,-0.88,-5.19,1.17
6160,72.19,20.5,15.94,-1.37,-6.01,0.35
6170,67.62,26.56,39.69,-1.74,-6.23,-1.45
6180,65.69,14.44,71.37,-1.49,-5.54,-1.97
6190,66.19,-5.19,101.87,-1.21,-4.38,-1.67
6200,68.94,-22.06,124.12,-0.4,-1.52,-0.2
6210,72.62,-29.87,136.06,-0.06,-0.12,0.25
6220,76.37,-28.69,136.37,0.2,1.22,0.42
6230,77.25,-20.87,123.37,0.3,2.14,0.16
6240,70.5,-11.19,102.19,-0.03,2.92,-0.68
6250,59.56,-4.62,79.75,-0.25,2.75,-0.97
6260,52.19,-6.5,59.19,-0.61,2.13,-1.24
6270,48.5,-17.31,45.38,-0.85,1.11,-1.19
6280,47.88,-28.75,42.44,-1.01,-0.27,0.24
6290,52.94,-32.88,46.63,-0.67,-0.5,0.81
6300,60.5,-29.44,51.75,-0.38,-0.51,1.12
6310,62.88,-19.62,55.38,0.07,-0.63,1.25
6320,59.94,-7.25,60,-0.15,-0.61,1.37
6330,60.69,6.62,68.87,0.04,-0.19,0.62
6340,62.75,13.19,78.62,0.45,0.45,-0.35
6350,58.94,6.81,82.75,1.14,1.48,-0.98
6360,48.5,-5.87,80.44,1.38,1.59,-0.27
6370,48.5,-5.87,80.44,1.33,1.63,0.92
6380,38.19,-14.56,75.62,1.45,1.96,1.69
6390,48.38,1.31,74.44,2.09,3.49,0.76
6400,53.94,11.69,68.25,2.28,4.07,-0.22
6410,48,14.19,55.75,2.47,4.46,-1.04
6420,30.94,6,38.5,2.25,4.26,-1.4
6430,30.94,6,38.5,1.86,3.84,-0.55
6440,-6.19,-16.25,17.62,1.8,3.78,0.34
6450,-12.56,-19.87,20.62,1.97,4.1,1.03
6460,-16.06,-16.5,24.37,2.17,5.68,1.97
6470,-16.06,-16.5,24.37,2.32,6.62,1.87
6480,-17.75,-2.31,22.25,2.71,7.52,1.29
6490,-8.5,25.81,-1.87,3.31,8.33,0.49
6500,-6.62,27.25,-29.81,3.7,8.25,-0.67
6510,-12.06,23.56,-66,3.49,7.05,-0.68
6520,-12.06,23.56,-66,3.08,5.32,-0.45
6530,-17.44,18.31,-99.06,2.65,3.5,-0.27
6540,-30.12,18,-125.62,1.7,0.49,-0.21
6550,-42.31,23.87,-118.31,1.41,-0.37,-0.27
6560,-53,29.31,-103.44,1.11,-1,-0.41
6570,-53,29.31,-103.44,0.95,-1.23,-0.89
6580,-60.56,32,-83.81,1.03,-0.81,-1.19
6590,-62.81,28.44,-49,1.19,-0.33,-1.51
6600,-56.81,16.87,-41.75,1.35,0.07,-1.66
6610,-52.06,5.87,-41.13,1.65,0.43,-0.9
6620,-52.06,5.87,-41.13,1.65,0.43,-0.9
6630,-49.88,-1.25,-46.5,1.34,-0.51,-0.11
6640,-60.94,6.56,-63.69,0.94,-1.37,-0.11
6650,-71.44,16.25,-63.81,0.27,-2.91,-0.44
6660,-80.75,24.94,-58.5,0,-3.46,-0.56
6670,-80.75,24.94,-58.5,0,-3.46,-0.56
6680,-84.75,32.44,-49,-0.24,-3.78,-0.68
6690,-61.06,35.25,-21.69,0.12,-2.51,-2.01
6700,-40.88,28.31,-16.44,0.36,-2.03,-2.59
6710,-33.25,18.19,-22.12,0.44,-2.03,-2.82
6720,-33.25,18.19,-22.12,0.44,-2.03,-2.82
6730,-35.81,8.13,-31.31,0.2,-3.08,-1.86
6740,-41.75,1.94,-39.06,-0.2,-4.3,-1.41
6750,-44.31,2.19,-33.06,-0.34,-4.69,-1.18
6760,-41.69,1.06,-20.12,-0.06,-4.14,-0.53
6770,-41.69,1.06,-20.12,-0.06,-4.14,-0.53
6780,-31.31,-1.81,-7.25,0.2,-3.43,-0.25
6790,-10.25,-2.12,-2.5,0.73,-2.22,0.11
6800,-4.94,2.44,-9.5,0.7,-2.28,0
6810,-4.94,2.44,-9.5,0.7,-2.44,-0.47
6820,-1.94,8.06,-15.25,0.7,-2.44,-0.47
6830,-3.25,10.44,-15.13,0.76,-2.45,-0.74
6840,-7.44,9.44,-11.06,1.09,-2.11,-0.33
6850,-8.94,5.56,-7.19,0.94,-2.11,-0.08
6860,-9.19,3.19,-4.75,1.03,-1.86,0.11
6870,-9.94,4.06,-0.56,1.03,-1.86,0.11
6880,-4.69,3.87,5.5,1.74,-0.7,0.4
6890,5.06,2.06,9.94,2.78,0.48,0.6
6900,11.25,0.75,8.25,3,0.56,0.71
6910,10.63,4.81,-1.19,3.18,-0.08,0.73
6920,5.87,12.81,-12.56,3.18,-0.08,0.73
6930,2.19,20.12,-22.56,3.14,-0.67,0.72
6940,0,25.56,-27.44,2.95,-1.03,0.34
6950,-1.75,33.38,-26.94,2.96,-0.67,-0.2
6960,1.5,43,-23.25,2.97,-0.57,-0.69
6970,13.56,45.88,-23.81,2.97,-0.57,-0.69
6980,25.94,40.38,-30.69,2.8,-0.74,-0.97
6990,31.75,32.19,-37,2.69,-2,-0.03
7000,29.56,24.75,-40.69,2.22,-2.65,0.67
7010,20.87,21.69,-41.44,1.9,-3.06,0.76
7020,9.38,31.37,-35.5,1.9,-3.06,0.76
7030,0.19,47.06,-21.56,1.57,-2.24,0.13
7040,2.44,57.56,-8.44,1.23,-1.56,-0.9
7050,11.63,57.75,-3.94,1.48,-0.57,-0.38
7060,17.37,50.81,-0.44,0.8,-0.32,0.48
7070,31.25,40.94,-5.37,0.8,-0.32,0.48
7080,44.94,42,-13.19,0.55,-0.35,0.01
7090,40,58.56,-16.25,0.46,-1.16,-2.27
7100,26.81,76.62,-17.56,-0.51,-2.45,-1.97
7110,17.19,76.06,-22.44,-1.3,-3.32,-0.87
7120,2.19,60.75,-21.87,-1.3,-3.32,-0.87
7130,-11.5,51.19,-3.12,-1.47,-3.17,0.64
7140,-1.31,47.69,24.5,-1,-0.08,1.22
7150,27.06,51.75,42.19,-1.23,0.33,1.3
7160,42.06,57.06,41.38,-1.73,0.66,2.02
7170,37.25,66.12,34,-1.73,0.66,2.02
7180,36.25,83.75,25.81,-2.53,0.99,0.56
7190,47.88,107.31,22.31,-3.36,1.04,-4.02
7200,47.44,126.81,18.19,-3.97,1.18,-5.54
7210,27.75,129.44,15.5,-4.09,1.73,-7.09
7220,7.37,110.56,13.63,-4.09,1.73,-7.09
7230,-0.56,68.69,8,-4.23,1.59,-6.21
7240,-0.5,16.37,-5.5,-5.13,-0.96,-0.8
7250,0.94,-19.44,-20.25,-5.44,-1.68,-0.02
7260,3.31,-29.87,-28.56,-5.54,-1.89,0
7270,9.25,-21.75,-26.75,-5.54,-1.89,0
7280,16.37,-7.06,-16.44,-5.25,-1.7,-0.63
7290,20.56,3.75,-6.37,-4.42,-0.39,-3.22
7300,21,7.69,-1.25,-3.94,-0.16,-3.98
7310,16.31,5.87,-0.75,-3.6,-0.41,-4.27
7320,9,-5.12,-6.31,-3.6,-0.41,-4.27
7330,5.12,-26.56,-15.69,-3.61,-1.76,-3.15
7340,3.69,-47.56,-18.94,-3.4,-2.04,-2.19
7350,3.37,-58.75,-15.25,-3.22,-2.02,-1.51
7360,4.75,-55.75,-9.75,-2.76,-1.94,-2.91
7370,3.69,-46.19,-7.06,-2.69,-2.19,-4.29
7380,-6.81,-43.5,-7.81,-2.47,-2.57,-5.05
7390,-22.25,-54.81,-8,-2.42,-3.08,-5.12
7400,-33.63,-78.5,-4.5,-1.96,-3.48,-3.01
7410,-41.44,-100.44,6.31,-1.51,-3.05,-1.39
7420,-39.94,-114.81,17.25,-1.1,-2.32,-0.39
7430,-27.06,-114.44,23.81,-0.66,-1.82,-0.27
7440,-18.94,-99.44,22.12,-0.3,-1.93,-1.83
7450,-27.75,-80.12,14.19,-0.18,-2.64,-2.41
7460,-40.25,-72.19,5.06,-0.15,-3.5,-2.39
7470,-35.94,-79.62,1.87,0.09,-4.14,-2
7480,-14.06,-95.06,7.44,0.75,-4.39,-1.08
7490,8.88,-109.62,19.06,1.11,-4.26,-0.74
7500,19.31,-118.19,31.31,1.46,-4.18,-0.36
7510,16,-120.25,41.63,1.77,-4.05,1.17
7520,9.63,-118.44,52.69,1.91,-3.78,1.81
7530,9.13,-115.19,66.81,2.03,-3.27,2.34
7540,13.19,-104.69,84.31,2.34,-2.37,2.62
7550,30.87,-75.31,107.19,2.62,-0.5,2.55
7560,40.44,-64,110.44,2.84,0.45,2.26
7570,47.06,-55.5,106.25,2.94,1.35,2.11
7580,54.06,-46.94,96.37,3.01,2.18,2.17
7590,67.44,-40.94,78.75,3.73,3.86,2.15
7600,79.94,-39.06,51.31,3.76,3.84,1.87
7610,81,-41.13,23.19,3.65,3.06,1.72
7620,71.25,-42.5,7.81,2.5,0.41,2.61
7630,60.88,-36.13,12.81,1.93,-0.39,3.13
7640,54.44,-17.25,32.38,1.79,-0.34,3.1
7650,43.31,2.69,51.75,2,0.29,2.3
7660,30.5,11.75,63.88,2.18,2.42,1.44
7670,32.94,11.94,69.31,2.64,3.98,1.79
7680,56.81,9.75,61.56,3.08,5.56,2.08
7690,81.81,11.5,35.69,3.32,6.64,1.8
7700,83.37,17.75,-0.25,3.12,6.4,0.21
7710,59.13,27.12,-32.69,2.32,4.97,-0.27
7720,29.62,36.63,-48,1.68,3.22,-0.56
7730,8.13,44,-37.56,0.61,1.77,-0.73
7740,-5,45.63,-7.69,0.63,2.71,-1.74
7750,-8.88,32.19,14.75,1.22,4.5,-1.97
7760,-9.31,15.06,17.87,1.77,6.04,-2.05
7770,-12.69,2.62,5.19,2.58,8.33,-1.01
7780,-8.94,-7.94,-20.81,3.18,8.94,0.03
7790,6.75,-16.62,-60.25,3.32,8.55,1.13
7800,15.88,-12.44,-100.25,3.04,6.97,1.6
7810,1,5.06,-125.12,1.73,2.55,1.86
7820,-23.06,31.25,-128.87,1,0.95,1.83
7830,-37.5,56.25,-114.81,0.61,-0.12,1.17
7840,-44.81,75.37,-90.69,0.31,-0.53,0.13
7850,-51.06,79.75,-66.31,0.75,0.65,-2.13
7860,-48.5,64,-54.69,1.26,1.56,-2.65
7870,-40.81,38.81,-60.63,1.37,1.79,-3.12
7880,-45.69,16.06,-74.12,0.79,-0.35,-1.92
7890,-57.75,5.06,-82.12,0.38,-1.64,-0.89
7900,-65.81,7.37,-82.31,-0.16,-3.19,-0.38
7910,-74.25,19.06,-69.75,-0.78,-4.69,-0.45
7920,-87.81,34.25,-40.19,-1.59,-6.33,-1.65
7930,-96.81,39.44,1.12,-1.4,-5.89,-1.95
7940,-84.37,30.62,37.88,-1.08,-5.05,-2.28
7950,-61.94,12.31,64.44,-0.64,-3.9,-2.85
7960,-55.88,-6.37,78.44,0.24,-0.88,-2.2
7970,-59.44,-17.75,76.62,0.65,0.48,-0.67
7980,-45.69,-21.37,59.75,1.09,1.73,0.76
7990,-19.37,-17.5,27.5,1.46,2.37,1.39
8000,-9.56,-5.37,-12.31,0.9,0.67,1.65
8010,-19.62,17.75,-43,0.24,-0.93,1.56
8020,-28.25,40.81,-56.5,-0.08,-2.15,1.35
8030,-20.81,55.19,-59.81,-0.93,-4.02,-0.33
8040,-11.06,63,-55.13,-1.06,-4.53,-1.82
8050,-10.88,58.31,-44.88,-1.23,-4.87,-3.06
8060,-16.06,40.88,-31.44,-1.34,-5.06,-3.64
8070,-18.12,16.31,-14.31,-1.33,-4.58,-3.62
8080,-20.12,-8,1.62,-1.08,-3.85,-2.85
8090,-24.44,-24.56,10.25,-0.75,-3.16,-1.67
8100,-27.56,-29.31,10.44,-0.63,-2.68,-0.73
8110,-30.62,-22.81,6.5,-0.67,-2.46,-0.05
8120,-32.19,-13.06,2,-0.81,-2.6,-0.27
8130,-29.94,-8.06,-1.44,-0.92,-2.9,-0.72
8140,-23.12,-10.19,-1.75,-1.28,-3.2,-0.76
8150,-10.94,-14.5,1.56,-1.21,-2.99,-0.73
8160,2.31,-15.75,4.12,-1.17,-2.71,-0.96
8170,10.38,-15.44,3.37,-1.2,-2.6,-1.49
8180,10.5,-17.12,0.06,-1.54,-3.17,-2.3
8190,4.37,-21.12,-2,-1.83,-3.75,-2.41
8200,-1,-26.62,1.69,-2,-4.23,-2.27
8210,-0.37,-33.38,10.25,-2.04,-4.44,-1.95
8220,6.75,-39.13,19.75,-1.63,-4.44,-1.48
8230,17.62,-43.56,27.31,-1.25,-4.31,-1.25
8240,29.62,-48.06,30.31,-0.95,-4.44,-0.97
8250,38.81,-51.06,30.44,-0.84,-4.83,-0.65
8260,40.88,-50.81,33.13,-1.29,-6.46,-0.04
8270,36.94,-48.75,45.31,-1.58,-7.31,0.33
8280,33.69,-44.88,72,-1.98,-7.83,0.92
8290,36.38,-35.13,112.56,-1.34,-6.52,1.39
8300,44.44,-23.31,156.31,-0.9,-4.68,1.19
8310,54.88,-10.13,193.75,-0.23,-2.51,0.49
8320,61.38,-0.81,217.62,0.67,-0.22,-0.23
8330,68.69,-1.75,220.37,2.54,4.5,-0.87
8340,82.25,-15.06,198,2.9,6.01,-1
8350,95,-31,151.5,2.86,6.61,-1.18
8360,94.62,-42.88,97.87,2.62,6.29,-1.1
8370,82.56,-49.13,56.19,1.03,3.95,-1.1
8380,61.38,-48.63,40.31,0.91,3.14,-1.42
8390,38,-48.81,42.44,0.47,2.95,-1.27
8400,23.69,-55,50.75,1.12,3.35,-1.75
8410,8.94,-70.12,54.5,1.27,3.36,-0.96
8420,-6.5,-88.62,54.25,1.46,3.42,0.66
8430,-1.62,-105.31,53.38,1.63,3.53,2.43
8440,25,-113.69,51.13,1.76,3.6,4.8
8450,54.31,-105.56,49.38,1.69,3.65,4.69
8460,69.81,-91.69,50.19,2.02,3.76,3.66
8470,62.88,-70.5,49.38,2.08,4.03,3.39
8480,42.5,-31.69,45.13,2.41,5.04,3.43
8490,31.62,2.87,39.94,2.47,5.57,2.22
8500,25,31.12,34.25,2.83,6.42,0.85
8510,15.81,51.38,21.69,3.28,7.39,0.05
8520,4.19,58.69,-8.19,3.52,7.02,-2.14
8530,-13.88,45.19,-47.69,3.11,5.61,-1.93
8540,-21,18.25,-77.37,2.75,4.24,-0.81
8550,2.62,-8.75,-91.81,2.34,2.22,0.44
8560,25.69,-19,-93.44,2.43,2.11,0.58
8570,22.94,-13.19,-89.19,2.59,2.15,0.72
8580,6,2.75,-88,2.57,2.06,0.58
8590,-11.19,20.69,-88.19,2.59,1.86,-1.3
8600,-28.56,31.81,-88.25,2.6,1.86,-1.86
8610,-42.06,36.13,-91.25,2.34,1.67,-2.21
8620,-48.06,30.69,-93.62,2.25,1.57,-2.32
8630,-41.44,10,-95.06,2.03,1.04,-1.6
8640,-30.69,-12.31,-98.56,1.79,0.45,-1.01
8650,-35.94,-23,-99.69,1.61,-0.11,-0.06
8660,-50.88,-18.31,-95.62,1.19,-0.88,1.49
8670,-60.19,-1.06,-86.12,1.16,-0.96,1.25
8680,-65.75,20.5,-76.81,1.14,-0.93,0.61
8690,-73.31,35.31,-71.06,0.99,-0.76,0.15
8700,-76.44,41.25,-70.94,0.77,-0.7,-0.14
8710,-71.06,41.56,-77.87,0.49,-1.21,-0.54
8720,-72.69,45.13,-91.31,0.31,-2.21,-0.97
8730,-86.5,52.25,-104.94,0.01,-3.67,-1.37
8740,-105.81,61.13,-112.06,-0.94,-6.53,-1.47
8750,-120.75,68.37,-105.25,-1.46,-7.54,-1.39
8760,-111.69,61.63,-81.5,-1.84,-8.26,-1.65
8770,-82.81,49.19,-45.13,-2.15,-8.46,-2.19
8780,-58.94,33.63,1.31,-1.7,-5.58,-2.78
8790,-43.31,18.69,44.06,-0.83,-3.07,-2.57
8800,-29,5.06,67.44,0.05,-0.86,-2.69
8810,-23.19,-6.31,67.87,1.34,2.21,-2.49
8820,-31.69,-16.31,48.75,1.58,2.74,-1.91
8830,-31.69,-16.31,48.75,1.71,2.64,-1.29
8840,-52.56,-23.62,-14.5,1.78,1.85,-0.66
8850,-49.06,-24.75,-40.94,1.33,-0.6,-0.05
8860,-39.5,-25.81,-53.06,1.4,-1.25,0.09
8870,-27.56,-27.12,-53.69,1.45,-1.53,0.25
8880,-14,-29.69,-48.5,1.52,-1.4,0.16
8890,-5.87,-32.88,-44,2.25,-0.86,-0.28
8900,-8.06,-39.31,-44.88,2.3,-0.79,0.04
8910,-13.06,-46.44,-48.44,2.31,-0.64,0.67
8920,-9.25,-46.38,-50.75,2.87,0.4,0.96
8930,-9.25,-46.38,-50.75,3.2,1,0.59
8940,17.31,-42.31,-64.69,3.29,1.08,0.32
8950,16.69,-44.31,-82.62,3.44,0.74,0.29
8960,3.62,-46.38,-101.31,3.06,-1.25,1.54
8970,-9.06,-42.94,-115.69,2.61,-2.08,1.88
8980,-9.06,-42.94,-115.69,2.47,-2.53,1.98
8990,-15.19,-33.75,-117.25,2.16,-2.67,1.62
9000,-12.75,0.94,-94.56,2.5,-1.32,-0.13
9010,-7.44,13.81,-81.87,2.68,-0.43,-1
9020,-3.44,17.44,-76.56,3.05,0.44,-2.13
9030,-3.44,17.44,-76.56,3.47,0.49,-3.25
9040,-6.87,9.5,-80.81,2.95,-1.63,-1.99
9050,-42.31,-30.87,-96.87,2.49,-2.61,-0.67
9060,-48.38,-43.81,-87.56,2.58,-2.99,0.76
9070,-40.19,-49,-72.94,1.8,-3,3.68
9080,-40.19,-49,-72.94,1.8,-3,3.68
9090,-20.75,-45.38,-60.81,1.96,-2.73,3.95
9100,19.62,7.56,-36.25,1.85,-2.16,3.71
9110,15.38,44.81,-26.5,1.83,-1.17,2.23
9120,3.25,77.25,-16.75,1.9,-0.04,1.84
9130,3.25,77.25,-16.75,1.9,-0.04,1.84
9140,-8.44,103.87,-9.94,0.53,0.73,0.29
9150,-32.19,184,-16,-0.67,0.04,-4.01
9160,-58.13,190.44,-20.62,-0.72,-0.63,-4.88
9170,-51.31,159.12,-25.37,-1.49,-1.99,-5.65
9180,-51.31,159.12,-25.37,-1.49,-1.99,-5.65
9190,-25.19,106.94,-24.37,-2.42,-3.71,-3.07
9200,-5.37,32.88,10.19,-3,-2.8,0.56
9210,4.94,34.81,34.88,-2.78,-1.16,0.86
9220,11.5,53.13,53.19,-2.48,2.35,-1.07
9230,11.5,53.13,53.19,-2.48,2.35,-1.07
9240,6.44,76.5,55.31,-2.39,2.89,-2.29
9250,-16.62,80.81,19,-2.53,2.2,-2.67
9260,-7.31,58.81,-2.31,-2.88,-0.13,-1.19
9270,9.25,31.94,-15.81,-3.07,-1,0.32
9280,9.25,31.94,-15.81,-3.07,-1,0.32
9290,23.37,14.75,-19.12,-3.35,-1.59,1.35
9300,27,32.88,-8.13,-3.73,-2.38,0.43
9310,12.94,54.5,4.44,-3.61,-1.69,-0.68
9320,-0.81,65.87,18.87,-3.69,-0.8,-1.45
9330,-0.81,65.87,18.87,-3.69,-0.8,-1.45
9340,-4.69,63.88,26.94,-3.35,1.08,-2.92
9350,2.56,51.19,26.62,-3.21,1.09,-2.66
9360,10.06,29.25,13.25,-3.5,0,-2.05
9370,13.56,7.94,-9.19,-4.06,-2.88,-1.76
9380,14.44,-3.56,-29.62,-4.06,-2.88,-1.76
9390,10.38,-5.81,-39.63,-4.05,-4.06,-1.84
9400,8.13,-8.25,-36.75,-3.7,-5.07,-1.97
9410,12,-15.19,-22.81,-2.91,-4.1,-2.04
9420,20.19,-25.56,-3.06,-2.33,-3.09,-2.04
9430,27.06,-34.13,18.19,-2.33,-3.09,-2.04
9440,25.06,-44.19,36.63,-1.92,-2.29,-2.03
9450,25.06,-44.19,36.63,-1.27,-2.05,-0.74
9460,19.75,-47.75,25.37,-1.32,-2.61,-0.15
9470,21.19,-42.63,18.31,-1.2,-3.19,0.27
9480,25.62,-32.88,16.25,-1.2,-3.19,0.27
9490,27.5,-21.62,19.62,-0.97,-3.8,-0.3
9500,12.81,-7.25,24.5,-0.08,-4.58,-2.93
9510,-20.06,2.5,24.25,-0.24,-5.51,-3.26
9520,-44.06,1.12,29.62,-0.06,-5.85,-2.89
9530,-39.75,-13.44,45.63,-0.06,-5.85,-2.89
9540,-18.25,-36.38,63,0.52,-5.21,-2.11
9550,2,-50.69,69.37,1.15,-4.35,-0.11
9560,15.94,-48.06,66.37,0.41,-4.76,-0.37
9570,23.06,-36.31,66.31,-0.04,-4.72,-1
9580,25.37,-28.12,76.56,-0.04,-4.72,-1
9590,25.75,-28.69,94.25,-0.16,-4.46,-1.84
9600,25,-41.44,114.81,0.14,-2.76,-2.79
9610,23.44,-64,137.25,0.57,-1.8,-2.12
9620,22.69,-91.94,160.62,1.13,-0.53,-1.02
9630,25.75,-116.31,179.81,1.13,-0.53,-1.02
9640,32.13,-134.62,189.75,2.13,1.96,1.23
9650,38.13,-128.25,191,2.4,3.98,2.25
9660,39.63,-108.12,184.87,2.43,4.64,2.19
9670,34.44,-80.87,171.19,2.65,5.61,0.6
9680,22,-59.81,151.94,2.65,5.61,0.6
9690,5.06,-57.19,126.44,2.43,4.68,-0.1
9700,-13.44,-69.37,111.44,2.24,3.66,3.46
9710,-16.81,-83.06,112.12,2.78,4.66,4.2
9720,0,-82.25,119.5,3.35,5.78,4.01
9730,25.75,-73.94,118.31,3.35,5.78,4.01
9740,47.31,-70.75,103.19,3.91,6.7,3.11
9750,49.94,-51.31,66.56,3.67,6.55,2.87
9760,37.63,-20.44,22.94,3.32,5.37,2.79
9770,35.25,6.56,-11.81,2.64,3.98,2.31
9780,45,25.25,-34.19,2.64,3.98,2.31
9790,51.81,35,-42.75,2.14,1.66,1.09
9800,50.19,42.44,-41.44,0.93,0.12,0.19
9810,39.31,55.56,-25.56,0.93,0.12,0.19
9820,18.69,65.5,-4.31,0.85,0.01,-0.24
9830,-12,62.88,15.81,1.45,0.45,-1.3
9840,-47.69,47.44,27.69,1.51,0.58,-0.78
9850,-66.81,37,36.44,1.08,0.61,0.27
9860,-60.69,34.5,50.19,1.93,2.93,0.76
9870,-41.88,32.06,55.38,2.56,4.61,0.6
9880,-28,28.75,39.81,3.13,5.75,0.36
9890,-29.06,28.12,7.56,3.26,6.24,0
9900,-40.06,28.06,-29.06,3.16,5.36,-0.34
9910,-52.06,24.44,-60,3.03,4.63,-0.21
9920,-61.81,19.5,-84.06,2.84,3.66,0.34
9930,-67.19,21.31,-98.44,2.57,2.75,1.14
9940,-62.06,32.75,-104.44,2.16,2.41,2.08
9950,-47.38,50.56,-109,2.32,3,1.62
9960,-30.31,65.31,-119.75,2.56,3.46,0.97
9970,-16.81,76.87,-137.75,2.79,3.66,-0.21
9980,-7.5,86.12,-160.5,2.88,3.64,-0.84
9990,-1.37,81.75,-190.25,3.1,3.22,-1.44
10000,-1.75,73.37,-227.56,3.04,2.07,-2.09