timestamp,gyrox,gyroy,gyroz,accx,accy,accz
10,0.94,0.19,0.19,0,0,0
20,-0.75,-0.44,0.19,0,0,0
30,-2.25,-0.44,1.37,0,0,0
40,-5.31,0.88,24.06,-0.72,-2.57,-19.81
50,-34.25,-16.75,45,0.07,-2.39,-20.32
60,-72.25,-31.5,21.56,0.24,-0.79,-19.64
70,-81.62,-27.06,-16.44,-0.37,0.13,-19.03
80,25.75,199.75,-109.87,-11.6,3.32,-28.33
90,28.75,198.75,-92.31,-11.06,3.66,-27.57
100,-7.44,179.5,-61.19,-8.26,2.7,-25.42
110,-45.81,171.37,-35.75,-7.13,1.87,-24.61
120,-66.06,179.31,-15.56,-5.86,1.09,-23.92
130,-81.12,191.19,-5.06,-5.86,1.09,-23.92
140,-101.75,202.94,-7.25,-4.91,0.63,-22.85
150,-106.75,218.5,-16.56,-2.55,0.49,-17.47
160,-78.75,238.06,-27.44,-1.82,0.54,-16.02
170,-36.25,249.81,-45.5,-1.1,1.76,-13.28
180,-1,247.62,-67.19,-1.1,1.76,-13.28
190,19.06,226,-82.06,-0.41,2.48,-12.24
200,26.37,188.87,-94.44,-0.37,5.76,-9.88
210,31.81,149,-103.37,-0.44,6.52,-9.48
220,44.94,108,-102.31,-1.11,6.8,-9.99
230,63.5,57.38,-89.62,-1.11,6.8,-9.99
240,73.5,-0.5,-68.31,-1.88,6.74,-11.81
250,60.06,-48.56,-42.88,-1.5,4.96,-19.78
260,34.06,-56.94,-30.19,-1.79,5.52,-20.23
270,25.19,-28.5,-28.06,-3.1,7.16,-20.07
280,34.25,5.19,-25.06,-3.1,7.16,-20.07
290,46.38,31.62,-20.56,-3.67,8.4,-19.86
300,55.38,52.38,-8.31,-4.9,10.61,-19.26
310,65.44,65.25,14.81,-4.9,10.61,-19.26
320,71,76,50.13,-5.64,10.32,-20.19
330,60.81,91.25,88.44,-5.56,9.72,-19.83
340,49.5,107.62,125.37,-5.08,8.79,-19.3
350,41.06,120.75,154.5,-3.82,6.27,-18.33
360,34.88,128.81,170.44,-3.4,5.7,-17.56
370,37.94,134,184.87,-2.98,5.01,-17.06
380,40.94,137.37,201.44,-2.54,4.05,-16.67
390,39.69,138.44,218.81,-2.27,3.13,-15.48
400,44.75,141.87,246.94,-2.43,3.7,-14.8
410,77.31,152.44,294.94,-1.6,1.67,-13.84
420,88.87,144.19,329.87,0.85,-4.07,-15.94
430,67,136.62,344.75,2.27,-6.8,-15.84
440,52.88,142.25,338.87,3.19,-8.32,-14.67
450,67.62,160.19,327.75,4.84,-10.54,-11.49
460,87.81,173.12,316.81,4.3,-11.7,-10.5
470,88.69,169.56,309.44,5.5,-13.06,-9.66
480,66.81,150,302.62,6.63,-14.12,-8.48
490,38.81,107.94,300.69,6.09,-16.24,-7.69
500,12.56,43.69,297.62,6.43,-17.82,-8.01
510,-0.5,-28.87,274.87,7.09,-19.31,-8.8
520,14.06,-83.5,229.69,6.88,-20.81,-11.81
530,37.5,-115,180.69,6.12,-21.62,-13.97
540,46.31,-135.31,138.19,5.36,-21.85,-15.76
550,45.94,-148.12,93.81,4.75,-22.71,-17.88
560,37.63,-149.81,37.25,2.68,-21.22,-21.12
570,53.31,-135.62,-12.56,1.7,-20.12,-22.47
580,88.25,-108.56,-49.63,1.16,-19.34,-24.83
590,93.62,-79.81,-78.5,0.57,-16.59,-28
600,74.37,-49.69,-91.69,0.22,-15.54,-29.37
610,37.38,-14.63,-89.5,0.43,-14.76,-30.39
620,-6.25,22.75,-83.81,1.91,-13.2,-30.82
630,-32.75,66.5,-81.31,2.03,-12.47,-30.74
640,-37.75,124.44,-82.37,2.27,-11.92,-30.19
650,-44.19,181.87,-83.25,2.84,-11.4,-28.75
660,-63.06,221.19,-81.5,3.55,-10.46,-24.84
670,-79.75,242.37,-79.25,4.4,-9.89,-22.92
680,-72.69,258.12,-80.94,5.13,-9.49,-21.35
690,-45.75,274.31,-82.62,5.98,-10.06,-19.97
700,-26.75,287.56,-89.12,7.05,-9.94,-19.26
710,-27.5,299.56,-99.37,8.04,-9.34,-18.05
720,-35.69,311.44,-111.37,8.47,-8.14,-15.9
730,-33.38,311.56,-115.94,8.66,-6.33,-12.5
740,-23,303.56,-116.5,9.2,-5.36,-11.22
750,-11.75,293.87,-113.87,9.59,-4.52,-10.73
760,-6.81,283.62,-101,11.17,-4.4,-9.5
770,-16.56,270.06,-84.69,12.03,-4.44,-8.57
780,-33.94,256.62,-74.94,12.7,-4.3,-7.28
790,-33.94,242.94,-70.87,13.2,-4.14,-5.75
800,-2.37,236,-72.56,13.85,-4.15,-3.63
810,42.38,237.75,-77.81,14.1,-4.18,-2.92
820,73.25,238,-85.94,13.76,-4.06,-2.54
830,95.12,242.56,-92.31,14.78,-3.05,-0.13
840,106.81,231.37,-83.12,14.34,-3.27,0.41
850,100.5,209.44,-72.44,14.37,-3.26,1.26
860,86.75,186.56,-54.31,14.54,-3.48,1.8
870,76.25,167.75,-33.5,14.25,-4.4,2.4
880,66.12,141.62,-15.75,14.74,-4.97,3.04
890,47.94,85.37,-4.44,14.05,-5.9,3.1
900,25.44,35.63,-5.62,15.52,-7.63,3.33
910,7,-2.56,-19.56,14.61,-7.4,3.39
920,0.81,-31.37,-31.56,14.93,-7.56,3.07
930,-5.81,-55.63,-38.13,13.98,-8.68,1.28
940,-29.62,-81.56,-42.44,13.86,-9.51,-0.01
950,-70,-99.19,-50.44,14.3,-10.09,-0.7
960,-112.87,-114.62,-67.62,14.36,-10.06,-1
970,-138.37,-131.75,-94.31,13.57,-8.17,-0.4
980,-132.81,-155.94,-116.69,13.03,-6.79,-0.62
990,-94.44,-185.06,-131.5,12.49,-5.44,-1.36
1000,-37.69,-215.62,-134.31,12.22,-3.85,-4.4
1010,10.81,-243.44,-132.19,12.35,-2.97,-6.24
1020,34.31,-262.12,-137.75,11.89,-2.08,-8.3
1030,34.25,-238.06,-146.44,12.22,-1.3,-10.82
1040,12.81,-209.94,-148.75,11.8,0.54,-12.73
1050,-10.94,-176.44,-147.25,11.44,1.71,-12.71
1060,-23.94,-144.62,-140.69,11.34,2.74,-12.15
1070,-20.31,-122.5,-134.19,11.49,4.12,-10.86
1080,-9.38,-114.19,-133.06,11.09,5.08,-10.47
1090,6.44,-121.06,-135.62,10.64,6.17,-10.18
1100,31.69,-138.25,-137.87,9.46,8.54,-10.88
1110,61.81,-159.44,-137.62,8.78,9.84,-12.33
1120,81.75,-176.81,-123.12,8.18,10.53,-14.33
1130,78.69,-179.12,-95.37,7.95,10.75,-16.31
1140,57.81,-165.87,-63.88,7.97,10.17,-18.55
1150,37.13,-136.81,-34.19,8.07,9.45,-18.89
1160,23.69,-95.56,-13.06,8.37,8.7,-18.46
1170,13.56,-55.31,-1.94,8.82,7.66,-15.36
1180,6.69,-27.87,3.37,8.71,7.4,-13.72
1190,6,-12.5,5.19,8.05,7.89,-12.14
1200,17,-4.37,9.75,7.77,8.56,-10.76
1210,33.25,-7.56,26.56,7.73,8.2,-9.88
1220,37.25,-21.81,51,8.08,7.43,-9.33
1230,30.06,-40.63,73.31,7.92,6.54,-9.12
1240,20.44,-58.63,91.56,7.82,4.54,-8.5
1250,14.25,-74.5,104.37,7.93,3.49,-8.43
1260,12.44,-90.19,112.56,8.06,2.17,-8.61
1270,8.25,-105.56,116.37,7.83,0.82,-8.74
1280,4.37,-121.12,111.31,6.45,-0.5,-7.58
1290,11.19,-140.62,103.87,5.43,-1.05,-7.08
1300,32,-169.44,98.31,4.37,-1.7,-7.92
1310,51.81,-201.87,92.31,2.15,-1.68,-9.88
1320,64.37,-236.87,96.25,2.14,-2.03,-11.75
1330,66.75,-271.56,113.94,1.45,-3.74,-14.72
1340,56.88,-288.19,123.62,2.13,-5.94,-17.67
1350,56.63,-280.94,119,1.39,-6.7,-18.86
1360,55.81,-268.06,106,0.56,-7.07,-19.38
1370,46.44,-263,91.25,0.01,-7.17,-19.33
1380,39.38,-272.44,78.69,-1.69,-7.12,-19.5
1390,47.13,-296.62,64.94,-2.69,-6.39,-20.76
1400,69.87,-322.37,65.19,-3.13,-6.56,-23.21
1410,83,-345.81,70.5,-4.55,-6.63,-29.65
1420,81.37,-339.5,77.5,-4.05,-7.55,-31.17
1430,57.56,-319.06,71.94,-5.36,-7.36,-31.61
1440,40.63,-299.19,63.81,-6.94,-7.06,-31.96
1450,42.56,-277.19,66,-8.59,-8.8,-34.61
1460,34.25,-257.81,70.19,-8.57,-10.05,-35.95
1470,18.12,-233.87,60.06,-8.7,-10.72,-36.87
1480,12.81,-190.94,39.5,-9.02,-11.49,-38.21
1490,8.06,-134.62,17.44,-8.88,-11.97,-38.39
1500,-5.75,-79.94,-8.44,-8.49,-12.01,-37.97
1510,-8.94,-29.69,-42.63,-8.75,-9.93,-36.89
1520,5.25,22.37,-74.06,-9.02,-8.62,-36.3
1530,17.19,72.94,-90.94,-9.1,-7.49,-35.52
1540,9.88,116.87,-95.69,-8.86,-6.41,-34.42
1550,-8.25,159.44,-91.19,-8.31,-4.82,-30.9
1560,-26.19,201.12,-80.37,-7.75,-4.55,-29.08
1570,-49.75,232.94,-67.25,-6.92,-4.62,-27.35
1580,-77.87,252.75,-58.31,-5.48,-4.49,-23.72
1590,-92.19,269.06,-50.63,-4.37,-4.41,-22.31
1600,-97.56,281.94,-46.5,-3.3,-4.29,-21.05
1610,-100.87,287.44,-47.13,-2.44,-3.81,-19.92
1620,-101.06,291.5,-48.06,-2.1,-3.31,-17.81
1630,-100.56,294.19,-47.75,-1.24,-2.92,-16.53
1640,-96.44,292.06,-45.06,-0.33,-2.58,-15.28
1650,-88.31,285.37,-41.81,1.06,-2.14,-13.07
1660,-76.75,276.06,-43.13,2.01,-1.77,-11.94
1670,-58.5,261.25,-45,2.99,-1.49,-10.97
1680,-38.06,242.81,-46.81,4.13,-1.32,-10.3
1690,-20.12,222.94,-52,6.13,-0.92,-9.08
1700,-4.94,200.25,-66.62,6.56,0.09,-8.21
1710,13.88,177,-86.37,6.46,1.68,-7.34
1720,35.13,146.25,-97,5.84,4.44,-6.76
1730,47.38,105.06,-90.5,5.83,5.19,-7.07
1740,39.81,45.44,-69.37,5.48,5.56,-7.91
1750,21.56,-26.19,-45.56,5.38,5.9,-9.41
1760,11.38,-80.44,-26.06,5.38,6.23,-14
1770,18.62,-105.25,-17.5,4.79,7.04,-15.96
1780,42.56,-108.06,-18.56,3.64,8.5,-17.91
1790,74.5,-98.94,-10.25,1.54,11.38,-22.06
1800,105,-70.87,19.44,0.97,11.71,-24.5
1810,113.37,-20.25,59.75,0.41,11.87,-26.07
1820,90.31,43.13,104.5,-0.5,10.86,-25.56
1830,41.25,101.75,158.44,-0.36,8.82,-23.45
1840,-20.5,143.75,209.75,0.42,6.54,-20.48
1850,-66.81,162.87,248.75,1.33,4.4,-17.57
1860,-77.81,170.19,272.12,3.05,1.69,-13.72
1870,-62.19,168.94,288.12,3.61,0.21,-12.87
1880,-48.31,153.12,297.19,3.84,-1.24,-12.84
1890,-48.31,153.12,297.19,4.26,-4.72,-13.27
1900,-75.87,111.5,323.44,4.53,-7.3,-13.39
1910,-109.62,86,328.56,4.98,-9.53,-13.29
1920,-131.37,65.12,322.81,5.48,-11.71,-13.04
1930,-132.25,48.31,305.87,6.69,-15.08,-12.28
1940,-114.44,29.12,271,6.89,-15.87,-12.08
1950,-82.75,5.37,228.25,7.08,-16.31,-12.39
1960,-46.63,-19.31,185.69,7.37,-16.28,-14.45
1970,-14.94,-38.5,145.44,7.3,-16,-15.85
1980,6.69,-44.94,110.81,7.07,-15.63,-17.05
1990,6.69,-44.94,110.81,6.72,-14.75,-18.09
2000,15.56,-40.13,84,6.75,-14.39,-18.3
2010,8.75,-26.56,48.88,6.73,-14.2,-18.5
2020,3.56,-17.37,34.81,6.79,-14.01,-18.42
2030,-4.37,-8.56,21.69,6.94,-13.47,-17.66
2040,-4.37,-8.56,21.69,6.96,-13.23,-17.26
2050,-17.19,-5.87,10.19,7.39,-13.13,-16.85
2060,-25.5,-12.38,-15.38,7.75,-11.71,-15.94
2070,-2.56,-17.12,-31.5,8.07,-10.92,-16.05
2080,29,-27.75,-46,8.47,-9.88,-16.77
2090,29,-27.75,-46,8.32,-9.19,-18.01
2100,64.81,-37.38,-59.5,9.14,-10.47,-22.3
2110,82.31,-47.63,-64.69,9.38,-10.81,-24.07
2120,59.56,-51.75,-83.19,9.54,-10.18,-24.78
2130,64,-49.75,-105.75,7.87,-8.9,-26.71
2140,64,-49.75,-105.75,7.04,-7.4,-27.95
2150,90.37,-44.56,-131.31,6.65,-6.31,-29.32
2160,159.56,7.5,-154.56,6.28,-5.63,-31.13
2170,159.25,53.44,-150.37,5.44,-4.01,-33.34
2180,121.69,113.5,-133.75,5.33,-3.61,-32.81
2190,121.69,113.5,-133.75,5.33,-3.61,-32.81
2200,61.81,180.56,-106,5.51,-3.6,-30.83
2210,-71.44,280.31,-46.25,7.46,-5.08,-21.46
2220,-118.25,302.5,-26.44,8.33,-5.43,-18.59
2230,-135.69,318.5,-13.44,9.83,-5.81,-13.48
2240,-135.69,318.5,-13.44,9.83,-5.81,-13.48
2250,-131.19,319.75,-10.19,10.53,-5.49,-11.44
2260,-89.87,285.12,-14.69,11.86,-4.59,-8.98
2270,-67.31,264.56,-17.62,12.04,-3.84,-8.22
2280,-51.25,248.12,-15.13,12.11,-3.61,-7.69
2290,-51.25,248.12,-15.13,12.11,-3.61,-7.69
2300,-44.25,241.06,-5.87,12.5,-3.72,-7
2310,-60.13,246.87,21.56,12.99,-5.14,-4.54
2320,-78.44,260.56,34,13.23,-5.69,-2.26
2330,-89.12,265.06,49.5,13.33,-6.39,-0.57
2340,-89.12,265.06,49.5,13.33,-6.39,-0.57
2350,-91.69,259.44,61.19,13.88,-7.88,2.12
2360,-85.25,251.12,65.81,15.34,-9.06,5.1
2370,-59.38,257.44,62.13,14.16,-9.23,6.07
2380,-24.19,213.69,51.13,13.89,-9.77,6
2390,1.5,159.5,39.94,13.89,-9.77,6
2400,12,115.62,36.75,14.17,-10.68,6.12
2410,-1.19,42.31,34.81,14.7,-14.23,2.87
2420,-20.31,-40.63,21.44,14.36,-14.59,0.91
2430,-27.87,-101.94,-7.5,14.03,-14.19,-0.33
2440,-9.56,-122.56,-42.13,14.03,-14.19,-0.33
2450,27.12,-120.5,-74.69,13.08,-13.37,-1.68
2460,62.63,-111.31,-97.69,13.59,-13.45,-4.02
2470,70.06,-107.69,-122.31,13.53,-10.76,-3.97
2480,47.75,-112.5,-153.75,12.86,-7.95,-3.1
2490,26.31,-121.87,-194.25,12.86,-7.95,-3.1
2500,41.19,-142.56,-226.56,11.59,-5.68,-3
2510,87.69,-180.81,-234,10.91,-2.87,-8.03
2520,131.25,-231.69,-225.69,12.06,-2.51,-11.29
2530,148.62,-276.31,-218,12.03,-1.78,-13.47
2540,152,-266.37,-219.12,12.03,-1.78,-13.47
2550,142.69,-250.87,-229.19,11.65,1.11,-15.46
2560,134.56,-228.25,-241.94,10.06,5.25,-17.13
2570,135.31,-207.31,-244.75,9.16,6.77,-18.43
2580,147.25,-178.12,-229.62,9.22,8.36,-20.16
2590,155.19,-138.06,-197.81,9.22,8.36,-20.16
2600,142.06,-91.56,-156.06,9.82,8.28,-20
2610,100.25,-50.63,-115.56,10.91,7.97,-15.19
2620,38.06,-24.12,-85,10.66,9.11,-13.08
2630,-9.69,-10.25,-68.5,10.59,9.38,-12.06
2640,-8.06,-1.94,-52.38,10.59,9.38,-12.06
2650,23,1.06,-25.87,11.14,7.56,-12.29
2660,35.06,2.81,-0.81,11.06,6.86,-11.43
2670,14.44,2.75,13.5,10.57,6.82,-10.49
2680,-21.94,0.25,25.19,10.22,5.77,-8.31
2690,-59.31,-4.94,42.38,10.22,5.77,-8.31
2700,-90.25,-15.69,61.75,10.16,5,-7.31
2710,-108.75,-29.37,78.25,10.59,2.44,-4.53
2720,-109.62,-45.25,85.87,10.41,2.2,-4.36
2730,-94,-67.31,81.37,10.18,2.09,-4
2740,-60.81,-89.62,69.37,10.18,2.09,-4
2750,-22.62,-114.06,56.19,9.47,2.32,-4.11
2760,13.75,-139.5,47,7.98,2.77,-6.62
2770,37.88,-166.94,47.06,7.64,2.7,-7.73
2780,45.44,-192.44,52.19,6.93,2.16,-9.37
2790,39.88,-213.62,61.13,6.93,2.16,-9.37
2800,26.94,-237.87,72.56,6.29,1.42,-10.56
2810,15.38,-263,80.44,5.79,-0.19,-12.84
2820,6.69,-280.62,83.75,3.69,-0.76,-13.78
2830,2.75,-285.06,78.69,3.69,-0.76,-13.78
2840,0.62,-279,70.87,3.35,-0.63,-13.84
2850,-8.38,-273.19,69.69,3.11,-0.49,-12.95
2860,-27.56,-291.19,72.25,0.93,-0.77,-13.76
2870,-42.56,-330.12,81.19,-0.15,-0.91,-15.29
2880,-39.38,-363.06,98.06,-0.92,-2.57,-15.83
2890,-17.87,-411.87,100.5,-2.97,-4.74,-20.41
2900,11,-459.5,85.75,-5.7,-5.11,-23.06
2910,64.12,-474.31,57.13,-7.04,-4.78,-26.34
2920,124,-446.75,33.81,-7.75,-4.6,-30.13
2930,133.19,-389.75,31.5,-9.75,-4.59,-34.67
2940,72.81,-328.87,41.5,-10.1,-4.71,-34.96
2950,-17.87,-274.5,66.25,-10.13,-5.89,-33.76
2960,-92.5,-246.75,84,-9.52,-8.09,-31.1
2970,-115.37,-232.75,68.37,-10.67,-7.85,-30.46
2980,-60.06,-214.56,31.75,-11.11,-7.86,-31.47
2990,29.81,-180.87,-7.87,-11.25,-8.08,-33.53
3000,70.75,-146.62,-46,-11.38,-6.48,-36.26
3010,58.38,-106.25,-75,-11.88,-5.42,-35.94
3020,38.94,-58.44,-88.62,-12.54,-4.81,-35.14
3030,32.25,-9,-93,-12.71,-3.69,-33.66
3040,30.19,41.19,-92.69,-12.09,-3.45,-32.87
3050,24.19,92.56,-87.37,-11.37,-3.25,-31.75
3060,10,138.44,-81.5,-10.47,-2.94,-30.22
3070,-5.25,175.19,-74.87,-8.9,-3.01,-27.47
3080,-23.12,201.12,-69.5,-7.91,-3.04,-26.09
3090,-43.06,217.44,-69.19,-7.3,-2.52,-24.59
3100,-51.44,229.44,-71.31,-7.44,-1.61,-22.17
3110,-49.5,242.56,-70.12,-7.09,-1.22,-21.08
3120,-44.94,254.37,-66.56,-6.7,-0.93,-19.94
3130,-39.25,260.81,-63.5,-5.03,-0.38,-18.03
3140,-32.63,268.44,-57.75,-3.78,-0.26,-16.98
3150,-27.56,271.81,-47.06,-2.88,-0.49,-16.12
3160,-30.25,261.25,-36.63,-1.94,-0.8,-15.47
3170,-40.38,237.56,-30.25,-0.35,-1.04,-14.45
3180,-42.19,211.37,-30.12,0.54,-0.84,-14.14
3190,-22.81,192.69,-35.75,1.27,-0.49,-13.94
3200,10.75,182.19,-47.56,1.48,0.79,-13.78
3210,43.81,175,-60.44,1.6,1.59,-13.74
3220,61.69,167.94,-67.62,1.89,2.33,-13.52
3230,60.31,156.94,-65.44,2.03,3.05,-13.05
3240,46.88,134.25,-55.25,1.88,3.95,-12.17
3250,35.31,97.75,-42.13,2.47,4.6,-12.36
3260,41.25,61.31,-27.06,2.96,4.91,-13.37
3270,63.38,37.13,-13.38,2.91,6.4,-16.22
3280,89.56,26.69,-7.12,2.4,7.82,-17.25
3290,117.62,27.06,-0.31,1.72,9.24,-18.34
3300,143.75,35.94,21.56,0.93,9.92,-19.71
3310,155.31,54.63,63.25,0.48,9.06,-22.66
3320,135.87,84.06,114.56,0.83,7.27,-23.53
3330,76.69,119,168.06,1.44,5.15,-23.08
3340,-3,148.81,208.25,2.25,2.68,-18.28
3350,-50,169.94,235,2.36,1,-16.17
3360,-49.19,185.81,258.44,2.85,-1.22,-14.94
3370,-41.69,191.06,275.44,3.66,-5.16,-13.32
3380,-49.44,184.81,285.37,4.01,-7.26,-12.54
3390,-68.69,172.25,293.44,4.3,-9.3,-11.7
3400,-89.31,152.56,296.56,4.83,-11.25,-10.96
3410,-102.75,125.44,292.06,5.79,-14.98,-10.5
3420,-107.44,94.19,278.37,6.83,-16.53,-10.49
3430,-98.5,62.56,251.25,7.37,-17.85,-10.69
3440,-75.87,35.56,211,7.86,-18.9,-11.44
3450,-49.13,9.94,160.37,7.51,-18.28,-12.18
3460,-20.69,-16.19,108.44,6.66,-16.84,-13.18
3470,13.19,-35,67.62,5.86,-15.22,-14.24
3480,50.88,-41.88,49.5,5.67,-14.81,-17.49
3490,67.5,-41,46,5.97,-15.27,-18.89
3500,47.56,-34.5,39.38,6.18,-15.01,-19.14
3510,16.81,-22.25,25.94,6.05,-13.77,-18.06
3520,6.62,-7.69,13.81,6.23,-13.28,-17.45
3530,8.44,2.31,5.81,6.55,-13.07,-17.37
3540,5.87,2.87,-1.12,6.9,-12.63,-17.38
3550,3.31,4.81,-13.19,6.98,-10.97,-16.77
3560,9.13,10.69,-22.87,7.21,-10.49,-16.48
3570,16.75,8.5,-28.25,7.16,-9.99,-16.55
3580,23.44,1.81,-33.88,6.68,-8.94,-17.5
3590,31.87,-4.81,-33.56,6.27,-9.26,-18.88
3600,31.06,-13.56,-25.69,6.43,-10.23,-20.73
3610,16.44,-22.69,-18,6.54,-12.17,-24.14
3620,3.19,-21.19,-17.69,6.94,-12.87,-25.63
3630,5.25,-0.13,-27.75,7.65,-13,-26.78
3640,20.5,41.25,-48.06,8.01,-12.75,-27.48
3650,39.63,101.19,-69.19,8.53,-12.46,-26.7
3660,40.06,153.44,-86.5,9.22,-11.6,-24.55
3670,23.94,183.25,-100.56,8.97,-10.84,-22.79
3680,17.75,200.19,-112.5,9.05,-9.47,-20.5
3690,23.44,218.25,-121.37,10.19,-8.39,-18.85
3700,33,230.19,-131.12,10.56,-7.3,-17.87
3710,41.56,228.44,-136.75,10.85,-5.92,-17.03
3720,52,222.69,-137.94,11.83,-3.99,-16.04
3730,66.75,223.19,-134,12.28,-3.28,-15.45
3740,72.75,227.94,-125.12,12.47,-3,-14.93
3750,60.06,230.87,-112.06,12.97,-2.9,-13.78
3760,31.37,231.62,-99.44,13.59,-2.64,-12.64
3770,5.75,237.25,-88.06,14.22,-2.45,-11.32
3780,-4.56,250,-78.31,14.66,-2.53,-9.79
3790,-6.87,266.56,-69.31,14.72,-2.86,-6.84
3800,-13.81,277.81,-62.63,14.91,-2.7,-4.96
3810,-25.62,278.69,-57.44,15.12,-2.35,-3.07
3820,-32.69,273.06,-51.63,14.85,-1.92,-0.05
3830,-31.69,259.25,-42.44,15.25,-1.93,1.39
3840,-25.06,238.19,-29.5,15.73,-2.03,2.6
3850,-13.5,211.25,-19,15.63,-2.33,3.17
3860,0,195.25,-5.56,14.82,-3.25,3.17
3870,3.75,167.19,13.88,16.46,-4.17,3.74
3880,-6.19,118.44,28.19,16.5,-5.46,4.1
3890,-20.44,55.88,30.81,16.31,-6.95,3.26
3900,-19.5,16.06,23.25,16,-7.24,2.97
3910,9.19,-1.12,14,15.94,-7.46,2.48
3920,49.81,-8.38,8.25,15.06,-8.76,0.93
3930,80.94,-18.25,7.19,15.23,-9.38,-0.24
3940,91.44,-25.94,5.87,15.76,-10.25,-1.02
3950,80.62,-27.75,1.12,15.04,-10.71,-1.24
3960,62,-23,-7.87,15.49,-12.52,-0.7
3970,36.19,-21.56,-14.56,15.28,-12.87,-0.12
3980,17.62,-27,-31.69,14.94,-13.2,0.36
3990,10.75,-36.81,-48.81,14.44,-14.2,0.68
4000,14.19,-47.75,-63.69,14.79,-14.93,0.53
4010,17.06,-60.75,-81.06,15.02,-14.94,0.48
4020,18.37,-73.94,-109.94,14.12,-11.69,0.97
4030,28.69,-88.31,-143.06,13.37,-9.36,0.54
4040,53.69,-107.25,-162,13.25,-7.88,-0.67
4050,80.5,-126.94,-163.44,13.5,-6.84,-2.16
4060,93.62,-143.12,-164.25,13.92,-4.5,-4.13
4070,93.56,-155.37,-171.31,13.62,-2.86,-4.76
4080,87.87,-168.62,-177.31,13.78,-1.64,-5.32
4090,79.06,-189.37,-178,14.22,0.4,-6.23
4100,67.5,-220.12,-184.56,13.83,2.08,-7.74
4110,63.75,-240.12,-196.75,13.16,3.76,-9.64
4120,78.56,-238,-199.69,12.49,5.38,-11.35
4130,103.5,-227.06,-188.44,11.56,7.63,-14.78
4140,124.81,-206.94,-168.69,11.49,8.45,-16.48
4150,131.94,-178.5,-139.31,11.64,8.78,-17.74
4160,121.56,-146.75,-108.37,12.23,8.72,-19.53
4170,96.25,-111.81,-79.44,12.45,8.04,-19.71
4180,55.06,-69.37,-53.13,12.79,7.43,-18.42
4190,5,-30.19,-36.94,12.76,7.46,-15.94
4200,-29.69,-7.81,-28.62,12.23,7.76,-11.8
4210,-32.63,2.37,-17.69,12.41,7.36,-10.84
4220,-27.31,3.12,-4.06,12.57,6.96,-10.16
4230,-31.56,-3.37,5.62,12,7.15,-8.51
4240,-37.81,-10.56,14.31,12.03,7.08,-7.74
4250,-37.69,-17.56,29.19,11.96,6.45,-7.06
4260,-37.75,-30.81,44.25,11.79,5.35,-6.38
4270,-40.19,-49.94,54.75,11.59,4.72,-6.13
4280,-37.75,-67.62,63,11.27,3.99,-5.74
4290,-24.19,-82.69,66.56,11.13,3.7,-5.98
4300,-3.44,-94.19,63.25,10.7,4.06,-6.1
4310,13.25,-106.06,61.63,10.3,4.21,-6.51
4320,17.44,-121.31,66.44,9.97,4.28,-6.86
4330,9.81,-138.62,77.12,9.48,3.87,-7.12
4340,-0.25,-151.5,91.81,9.19,3.24,-7.18
4350,-0.25,-151.5,91.81,9.04,2.47,-7.19
4360,-8.38,-160.31,107.94,8.52,1.83,-6.77
4370,-28.94,-190.25,131.75,8.16,1.11,-6.64
4380,-24.25,-226.06,137.81,7.84,0.24,-7.78
4390,-3.12,-266.69,137.19,7.5,-0.4,-9.32
4400,-3.12,-266.69,137.19,6.71,-1.14,-12.68
4410,54.94,-334.87,111.94,4.65,-0.81,-14.72
4420,72,-349.44,95.19,4.09,-0.51,-15.89
4430,69.81,-353.31,99.19,2.78,-1,-17.14
4440,49.06,-360.06,113.5,-0.93,-2.04,-20.23
4450,10.19,-358.94,125.94,-0.38,-3.4,-20.53
4460,10.19,-358.94,125.94,-2.7,-5.78,-21.01
4470,-95.25,-376.87,162.44,-4.33,-7.52,-21.47
4480,-107.12,-391.37,147.81,-5.43,-8.07,-22.09
4490,-70.75,-392.62,125.56,-7.08,-8.22,-23.54
4500,-70.75,-392.62,125.56,-8.1,-9.1,-27.19
4510,-12.75,-382.81,96.56,-9.02,-9.65,-28.09
4520,33.31,-329.81,55.69,-10.12,-9.5,-28.65
4530,12.31,-306.81,32.5,-10,-9.11,-28.96
4540,-8.56,-285.31,16.12,-10.5,-8.47,-29.39
4550,-8.56,-285.31,16.12,-10.83,-7.9,-29.68
4560,-15,-261.06,-5.81,-11.32,-7.25,-29.97
4570,4.75,-204.69,-49.38,-12.13,-5.04,-30.63
4580,27,-173.31,-68.69,-12.58,-4.41,-31.29
4590,41.88,-138.69,-78.25,-13.05,-3.92,-31.46
4600,41.88,-138.69,-78.25,-13.48,-3.54,-31.23
4610,29.56,-106,-80,-13.37,-4.03,-32.2
4620,-26.12,-57.38,-61,-12.57,-4.56,-33.16
4630,-43,-29.94,-55.81,-11.55,-4.73,-33.56
4640,-39.81,18.25,-64.31,-12.09,-3.28,-32.2
4650,-39.81,18.25,-64.31,-12.18,-2.57,-31.28
4660,-11.06,85.25,-80.81,-11.8,-2.28,-30.55
4670,14.94,201.44,-83,-11.37,-2.13,-29.34
4680,-28.19,233.81,-68.69,-10.85,-2.36,-25.7
4690,-70,259.37,-48.56,-9.77,-3.09,-24.27
4700,-70,259.37,-48.56,-9.77,-3.09,-24.27
4710,-93.06,311.31,-28.94,-8.38,-3.69,-22.78
4720,-79.69,337.31,-36.5,-5.15,-4.26,-18.43
4730,-64.12,353.5,-50.5,-4.24,-3.72,-16.79
4740,-54.63,358.56,-67.56,-2.52,-2.18,-13.53
4750,-54.63,358.56,-67.56,-2.52,-2.18,-13.53
4760,-30.62,328.87,-87.75,-1.93,-1.37,-12.32
4770,-15.06,304.37,-85.56,-0.16,-0.53,-10.61
4780,-4.94,241.87,-69,2.31,-0.69,-9.1
4790,-13.19,195.06,-63.69,3.51,-0.93,-8.75
4800,-13.19,195.06,-63.69,3.51,-0.93,-8.75
4810,-21.62,146.62,-65.69,4.26,-0.88,-8.56
4820,9.13,66.62,-79.87,4.78,1.54,-8.56
4830,9.13,66.62,-79.87,4.81,2.79,-9.49
4840,9.13,66.62,-79.87,4.44,3.8,-10.79
4850,74.69,12.31,-73.44,4.44,3.8,-10.79
4860,81.37,-10,-58.44,3.75,4.52,-13.01
4870,66.37,-34.88,-42,3.28,5.57,-15.21
4880,51.63,-54.56,-22.87,3.12,7.11,-17.33
4890,56.5,-69.31,-9.31,2.48,8.1,-19.09
4900,86.44,-76.31,-0.44,2.48,8.1,-19.09
4910,126.44,-67.81,12.31,2.01,8.75,-20.88
4920,154.94,-48.06,35.88,-0.63,9.51,-27.89
4930,149.44,-5.31,79.25,-0.88,8.56,-29.01
4940,97.12,58.75,134.19,-0.66,7.09,-28.24
4950,17.94,120.75,182.75,-0.66,7.09,-28.24
4960,-52.44,160.31,220.25,-0.65,4.48,-22.16
4970,-81.44,175.94,251.69,0.51,1,-17.62
4980,-75.62,177.06,275.5,2.29,-2.96,-16.24
4990,-63.81,173,287.37,2.62,-4.38,-15.39
5000,-59.56,168.44,288.75,2.62,-4.38,-15.39
5010,-62,160.12,288.19,2.73,-5.66,-14.69
5020,-72.62,146.12,290.75,3.27,-10.49,-13.71
5030,-91.06,127.12,292.75,4.06,-12.28,-13.45
5040,-111.31,103.94,289.44,5.4,-14.03,-13.1
5050,-119.69,81.19,271.69,5.4,-14.03,-13.1
5060,-109,59.75,236.25,6.65,-16.09,-12.16
5070,-79.37,36.69,190.5,7.11,-16.33,-11.9
5080,-38.75,8.06,143.56,7.1,-16.1,-12.78
5090,0.62,-19.25,99.5,6.69,-14.47,-15.68
5100,33.38,-35.88,61.88,6.69,-14.47,-15.68
5110,52.94,-37.19,35.44,6.3,-13.58,-16.96
5120,55.13,-28.87,19.75,5.57,-11.16,-17.7
5130,41.38,-23.69,11.88,5.37,-10.84,-17.87
5140,24,-23.12,10.19,5.56,-10.83,-18.09
5150,8.94,-21.37,12.31,5.56,-10.83,-18.09
5160,-10.13,-19.5,10.94,6.31,-11.47,-18.82
5170,-29.5,-13.75,-0.81,6.27,-10.66,-17.86
5180,-34.88,-7,-14.94,6.4,-10.29,-17.46
5190,-27.56,-7.31,-30.56,5.96,-8.55,-17.31
5200,-8.44,-11.44,-46.88,5.96,-8.55,-17.31
5210,18,-16.12,-56.06,5.82,-7.99,-17.83
5220,36.19,-24.94,-60.56,5.75,-7.22,-21.06
5230,41.88,-38,-63.44,5.82,-7.28,-22.47
5240,40.69,-49.19,-63.5,6.07,-7.35,-23.82
5250,40.56,-53.38,-65.81,6.07,-7.35,-23.82
5260,49.06,-47.5,-73.12,6.38,-7.32,-24.99
5270,66.5,-30.25,-85.06,5.92,-6.28,-28.36
5280,87,0.13,-99.19,6.25,-5.51,-28.9
5290,109,42.69,-107.75,6.32,-4.88,-30.42
5300,121,95.44,-102.87,6.32,-4.88,-30.42
5310,98.44,146.06,-93.69,6,-4.66,-29.89
5320,56.5,186.56,-82.12,6.85,-3.92,-26.34
5330,29.62,220.87,-67.94,6.85,-3.92,-26.34
5340,20.56,252.75,-53.88,6.85,-3.76,-23.3
5350,9.63,275.69,-39.31,7.22,-3.97,-21.82
5360,-7.12,291.87,-24.5,7.78,-4.21,-20.21
5370,-19.94,308.94,-13.13,9.23,-4.89,-17.22
5380,-29.5,323.81,-7.69,10.03,-5.02,-15.4
5390,-36.44,335.81,-3.87,10.36,-5.1,-13.71
5400,-43.5,347.87,0.69,11.25,-5.48,-9.91
5410,-52.44,352,4.5,11.78,-5.42,-7.41
5420,-59.38,341.31,8.13,12.2,-5.36,-5.28
5430,-61.63,320.37,12.25,12.86,-5.33,-3.33
5440,-59.81,295.69,16.25,13.64,-5.58,-0.74
5450,-57.19,274.25,21.06,13.74,-5.76,0.45
5460,-56.13,262.69,33,14.1,-6.23,1.47
5470,-55.31,244.5,48.38,14.67,-8.53,3.47
5480,-63.81,164.31,55.19,14.46,-9.87,3.88
5490,-74.81,82.87,48.06,16.16,-11.28,3.86
5500,-71,25.44,24.87,15.91,-12.59,2.69
5510,-44,-0.88,-7.5,16.76,-13.74,1.83
5520,0.37,-10.56,-45.25,16.2,-13.65,1.38
5530,39.5,-17.75,-80,15.83,-12.92,1.26
5540,58.69,-37.44,-103,14.77,-10.87,0.55
5550,57.69,-66.25,-115.37,14.05,-9.84,-0.27
5560,44.75,-94.69,-117.81,13.29,-8.84,-1.16
5570,23.44,-124.62,-107.31,12.67,-8.58,-2.28
5580,-2.94,-158.94,-95.37,12.76,-9.71,-4.45
5590,-24.56,-204,-91.31,12.55,-10.06,-5.37
5600,-31.12,-266.56,-97.37,12.37,-9.48,-5.92
5610,7.06,-282.87,-122.81,12.34,-9.19,-11.45
5620,75.75,-247.12,-153.5,12.29,-8.99,-14.7
5630,128,-194.06,-181.06,12.04,-8.66,-17.2
5640,141.81,-146,-210,11.48,-6.19,-18.7
5650,129,-108.69,-233.56,10.86,-3.87,-18.38
5660,117.12,-74.81,-239.19,10.49,-1.74,-17.98
5670,111.62,-40.06,-228,10.25,-0.2,-17.46
5680,103.25,-8.88,-209.5,10.72,1.56,-16.17
5690,85.06,13.31,-192.12,11.19,2.3,-15.12
5700,65.12,26.75,-179.44,11.57,3.13,-13.68
5710,56.5,34.06,-168.44,11.82,4.65,-11.26
5720,58.94,38.19,-156.56,12.07,5.11,-10.38
5730,60.25,38.25,-146.75,12.24,5.42,-9.65
5740,52.75,32.25,-137.81,12.29,5.77,-8.92
5750,40.13,21.56,-127.37,12.07,6.36,-7.4
5760,30.44,6.19,-114.19,12.01,6.64,-6.58
5770,31.94,-14.63,-100.69,12.31,6.93,-5.92
5780,46.06,-37.56,-91,12.42,7.54,-5.79
5790,66.75,-58.63,-84.81,12.04,8.06,-6.36
5800,81.87,-75.5,-77.19,11.37,8.66,-7.16
5810,84.06,-88.19,-62,10.82,9.17,-8.14
5820,70.81,-96.12,-38.56,9.98,9.63,-9.69
5830,47.19,-97.19,-8.06,9.67,9.47,-10.27
5840,18.31,-91.81,24.19,9.39,8.88,-10.44
5850,-11.25,-85.06,53.19,9.06,7.32,-9.38
5860,-37.06,-78.94,77.94,9.02,6.35,-8.88
5870,-62.38,-77.12,96.31,8.93,5.17,-8.01
5880,-85.62,-86.12,104.31,9.15,4.14,-7.04
5890,-96.37,-104.44,106,10.19,2.62,-4.73
5900,-83.69,-131.81,97.19,9.87,2.12,-3.87
5910,-46.88,-166.75,79.81,8.94,2.32,-3.43
5920,5.69,-202.25,70.19,6.6,3.35,-4.5
5930,51.13,-236.87,74.62,5.35,3.09,-6.44
5940,66.87,-272.06,86.56,4.33,2.7,-8.52
5950,61.69,-297.62,100.37,2.35,1.71,-12.07
5960,49.88,-302.19,115.19,2.06,1.36,-12.73
5970,35.25,-308.19,134.37,1.62,0.33,-13.17
5980,9.75,-331.81,143.19,0.71,-1.1,-13.63
5990,-25.87,-375.06,139.75,-1.43,-3.23,-15.39
6000,-39.56,-415.75,127,-2.28,-3.85,-16.73
6010,-15.94,-435.62,114.62,-3.98,-3.92,-18.6
6020,11,-441,105.31,-6.38,-5.53,-23.87
6030,17.25,-432.25,93.56,-7.57,-5.74,-25.9
6040,15.69,-413.31,85.75,-8.62,-5.93,-27.25
6050,23.19,-387.06,74.81,-9.44,-6.31,-28.26
6060,36.88,-348.75,59.31,-7.35,-6.9,-29.53
6070,46.81,-305.25,34.25,-7.39,-6.5,-29.21
6080,42.38,-274.69,14.44,-9.46,-5.78,-29.85
6090,-6.44,-294.37,-2.56,-11.56,-4.1,-27
6100,-9.13,-313.25,-4.12,-13.02,-3.35,-28.06
6110,59.88,-281.06,9.94,-12.71,-4.47,-29.62
6120,84.87,-243.81,16.12,-12.24,-6.78,-33.19
6130,36.75,-208.56,13.81,-12.8,-7.28,-33.15
6140,-36.44,-177.5,12.94,-13.35,-7.63,-33.21
6150,-91.37,-140.37,10.25,-13.72,-8.19,-33.9
6160,-103.12,-99.37,-12.38,-15.87,-6.97,-37.12
6170,-20.37,11.31,-45.94,-8.28,-8.04,-34.48
6180,6,63.13,-94.62,-12.32,-8.13,-29.58
6190,7.25,55,-132.06,-13.43,-1.85,-27.61
6200,59.25,69.12,-128.87,-13.83,-1.77,-29.75
6210,70.25,103.69,-117.56,-13.2,-2.49,-31.28
6220,27.5,149,-106.69,-12.95,-2.25,-31.31
6230,-27,196.37,-87.12,-12.51,-2.5,-29.01
6240,-76.31,239.31,-71.44,-11.4,-2.41,-27.01
6250,-92.62,279.12,-65.69,-10.63,-1.92,-24.34
6260,-67.37,313.06,-64.37,-9.14,-1.59,-19.89
6270,-27.06,335.87,-64.75,-7.82,-1.72,-18.51
6280,-5.75,335.81,-65.75,-6.59,-2.21,-17.82
6290,-14.81,314.56,-68.69,-5.6,-2.56,-17.46
6300,-26.44,293.31,-73.75,-4.25,-1.78,-16.26
6310,-13.63,287.69,-79.31,-3.37,-1.24,-15.58
6320,13.88,287.37,-83.56,-2.36,-0.91,-14.76
6330,38.31,278.5,-89.62,-0.73,0,-12.99
6340,57.69,260.19,-95,0.19,0.72,-12.16
6350,73,234.31,-96.44,0.96,1.47,-11.64
6360,77.62,201.06,-93.5,1.52,3.11,-11.56
6370,65.69,155.62,-83.69,1.41,3.97,-11.76
6380,47.06,105.06,-63.5,1.35,4.82,-12.3
6390,34.44,61.69,-35.13,1.31,5.32,-13.35
6400,32.38,33.56,-7.81,1.73,5.97,-16.7
6410,34.25,22.94,13.31,1.5,6.38,-18.33
6420,33.88,23.31,33.5,1.01,6.89,-19.48
6430,34.31,28.87,54.38,-0.29,8.25,-21.55
6440,38.31,43.38,82.75,-0.71,8.61,-22.39
6450,45.5,75.25,122.44,-0.97,8.41,-23.15
6460,38.38,116,166.31,-1.35,7.82,-23.43
6470,6.19,150.5,210.56,-1.07,5.79,-21.65
6480,-36.44,172.56,247,-1.62,5.23,-19.59
6490,-56.19,190.44,284.37,-1.55,4.52,-17.55
6500,-66.69,198,329.37,-1.01,-0.7,-16.75
6510,-105.62,189.75,364.25,-0.55,-2.99,-16.58
6520,-148.37,180.31,389.44,0.73,-5.58,-15.09
6530,-174.56,163.37,403.19,0.55,-8.71,-14.78
6540,-196.75,148.69,405.81,1.03,-13.75,-14.31
6550,-210.44,132.56,401.06,2.19,-16.14,-13.85
6560,-205.87,112.87,375.94,3.4,-18.12,-13.58
6570,-180.44,96.37,327.25,5.55,-20.04,-12.71
6580,-133.69,83.31,262.69,6.59,-20.13,-11.96
6590,-71.25,67.37,187.5,7.2,-19.51,-11.2
6600,-1.12,43.75,116.44,6.19,-16.47,-10.75
6610,64.56,12.25,68.56,5.96,-15.41,-11.98
6620,110.5,-15.75,42.75,5.97,-14.86,-13.88
6630,124.44,-29.5,27.44,5.98,-14.89,-15.52
6640,102.19,-36.06,14.44,5.99,-13.86,-17.78
6650,76.44,-24.12,10.56,5.73,-13.95,-18.07
6660,45.75,-9.06,9.69,6.52,-14.27,-18.11
6670,9.25,-3.25,-2.81,9.91,-15.45,-7.52
6680,50.88,-30.44,-60.94,5.53,-9.45,-19.24
6690,58.88,-15,-47.69,5.47,-10.66,-18.39
6700,25.75,-8.63,-34.25,7.16,-10.82,-18.54
6710,-24.94,-12.19,-29,8,-11.25,-18.8
6720,-53.13,-11.13,-33.13,8.28,-10.9,-18.49
6730,-45.31,-11.88,-39.81,8.05,-10.93,-18.97
6740,-24.25,-18.75,-50.63,7.85,-10.94,-21.99
6750,-1.56,-23.25,-66.87,7.18,-10.66,-24.1
6760,21.87,-11.69,-79.5,6.96,-10.67,-25.96
6770,44.25,21.75,-92.44,7.23,-10.89,-27.22
6780,64.06,68.31,-109.19,8.24,-11.19,-28.62
6790,80.75,121.19,-132.62,8.65,-10.82,-28.52
6800,96.94,177,-162.87,8.53,-9.37,-26.98
6810,113,221.37,-185.44,7.46,-6.17,-23.38
6820,116.81,259.69,-191.31,7.93,-4.87,-21.41
6830,96.31,285.5,-177.94,8.8,-4.11,-19.62
6840,46.06,289.25,-157,9.71,-2.77,-16.27
6850,-12.31,282.5,-129.69,10.41,-2.37,-14.38
6860,-57.31,277.62,-99.75,11.27,-2.32,-12.41
6870,-82.62,274.06,-72.87,12.23,-2.59,-10.42
6880,-91.62,263.5,-55.06,13.87,-3.62,-7.24
6890,-86,240.62,-50.06,14.6,-3.61,-6.09
6900,-62.88,216.19,-55.38,14.94,-3.36,-5.5
6910,-31.37,198.31,-59.94,15.18,-2.99,-5.58
6920,-5.94,187.31,-63.5,15.4,-2.66,-5.35
6930,10.63,184.37,-65.75,15.38,-2.19,-4.92
6940,21.31,188.31,-63.5,15.69,-1.76,-3.92
6950,28.5,193.37,-57.81,15.74,-1.51,-1.9
6960,28.5,193.37,-57.81,16.23,-1.45,-0.47
6970,31.25,195.19,-51.63,16.56,-1.23,0.94
6980,30.06,175.69,-46.5,16.3,-0.86,2.53
6990,32,161.87,-37.56,15.68,-0.88,2.67
7000,29.25,124.56,-16.94,15.34,-1.2,3.18
7010,29.25,124.56,-16.94,15.05,-1.94,3.3
7020,9.94,47.5,10.25,15.36,-5.11,1.41
7030,-26.5,-54.31,37.19,16.37,-6.48,0.61
7040,-19.19,-67.44,30.81,16.29,-7.73,0.23
7050,4.25,-69.31,15.25,15.71,-9.09,0.24
7060,4.25,-69.31,15.25,14.78,-9.6,0.4
7070,36.25,-71.44,0.13,14.01,-10.41,0.06
7080,91.87,-118.37,-13.5,13.48,-13.77,-2.62
7090,91.81,-168.81,-19.06,14,-15.3,-3.56
7100,77.94,-233.31,-39.13,14.19,-16.7,-4.79
7110,77.94,-233.31,-39.13,15.17,-17.03,-8.19
7120,79.06,-265,-97.25,14.19,-14.68,-14.06
7130,172.31,-181.19,-254.94,14.25,-11.58,-15.05
7140,239.5,-134.12,-327.5,13.81,-7.26,-14.25
7150,311.31,-106.75,-372.37,9.52,0.77,-14.15
7160,311.31,-106.75,-372.37,9.52,0.77,-14.15
7170,357.37,-95.94,-365.19,9.21,3.62,-15.38
7180,301.75,-76.37,-260.12,9.99,6.58,-18.68
7190,204.87,-53,-204,11.37,8.27,-18.64
7200,98.06,-26.94,-153.5,11.47,9.01,-17.59
7210,98.06,-26.94,-153.5,11.47,9.01,-17.59
7220,7.19,-4,-105.69,11.92,9.3,-16.07
7230,-90.44,11.75,-40.13,13.84,8.25,-10.74
7240,-88.19,9.81,-27.56,13.88,8.36,-9.23
7250,-59.13,5,-19.06,13.04,8.61,-8.07
7260,-59.13,5,-19.06,13.04,8.61,-8.07
7270,-26.81,-1.62,-4.94,12.84,8.45,-8.05
7280,-8,-12.13,37.13,12.58,7.23,-8.37
7290,-29.56,-12,56.13,12.73,5.25,-7.86
7300,-67.94,-12.5,68.94,12.77,4.26,-7.02
7310,-67.94,-12.5,68.94,12.77,4.26,-7.02
7320,-111,-17.31,71.31,12.74,3.66,-5.82
7330,-148.12,-45.94,54.69,11.94,4.05,-1.28
7340,-120.56,-73.62,40.44,10.35,5.4,-0.65
7350,-120.56,-73.62,40.44,9.8,6.63,-0.87
7360,-64.31,-97.56,35.75,9.8,6.63,-0.87
7370,-14.94,-119.94,51.5,8.27,6.75,-3.44
7380,-11.94,-156.25,83,7.13,5.73,-4.84
7390,-49.25,-200.81,116.87,6.49,3.22,-4.94
7400,-99.56,-250.69,147.75,6.35,1.78,-4.97
7410,-139.25,-299.75,163,6.35,1.78,-4.97
7420,-151.75,-346.12,163.94,6.51,0.21,-5.51
7430,-129.87,-389,146.19,3.34,-2.92,-10.32
7440,-82.19,-435.62,109.75,1.9,-2.64,-11.64
7450,-36.25,-497.56,75.69,0.22,-2.69,-15.09
7460,23.62,-543.75,45.25,0.22,-2.69,-15.09
7470,99.31,-519.75,29.69,-1.01,-5.49,-25.56
7480,125.25,-475.37,20.69,-1.28,-7.09,-32.69
7490,102.06,-416.12,7.56,-1.52,-5.52,-33.7
7500,47.94,-354.5,-16.5,-2.52,-4.15,-32.83
7510,18.44,-275.06,-47,-2.52,-4.15,-32.83
7520,22.75,-188.5,-58.56,-3.11,-3.29,-31.58
7530,26.5,-124.5,-49.56,-2.71,-3.63,-29.11
7540,-0.56,-103.87,-29.56,-2.46,-4.03,-29.13
7550,-48.56,-116.37,-9.75,-1.45,-4.63,-29.06
7560,-67.87,-127.44,2.06,-1.45,-4.63,-29.06
7570,-55.81,-135.37,-2.31,-0.59,-6.94,-30.33
7580,-65.69,-142.06,-31.62,-3.01,-4.22,-31.02
7590,-46.69,-120.69,-48.19,-2.08,-5.17,-32.64
7600,-9.63,-85.94,-50.44,-1.67,-3.13,-33.15
7610,-24,-68.94,-73.06,-1.67,-3.13,-33.15
7620,-47.75,-54.69,-105.69,-3.37,-0.6,-31.73
7630,-26.19,-36.13,-113.87,-3.74,0.84,-34.02
7640,14.19,-7.94,-97.94,-2.94,0.37,-34.44
7650,31.12,42.5,-75.5,-2.59,0.07,-33.12
7660,13,107.56,-58.94,-2.59,0.07,-33.12
7670,-23.75,164.12,-47.69,-2.4,0.13,-29.97
7680,-47.19,198.06,-37.75,-0.54,-0.47,-22.36
7690,-51.06,209,-32.5,0.35,-0.47,-21.13
7700,-50.19,208.56,-34.25,0.78,0.45,-18.87
7710,-49.44,204.44,-41.31,0.78,0.45,-18.87
7720,-44,198.75,-49.25,1.1,1.18,-17.77
7730,-30.5,190,-51.38,2.62,2.02,-16.43
7740,-13.31,180.56,-51.81,3.12,2.45,-15.89
7750,2.37,176.69,-54.06,3.48,2.8,-15.28
7760,14.5,177.94,-56,3.48,2.8,-15.28
7770,19.5,178.81,-54.25,4.02,3.04,-14.58
7780,14.31,173.81,-52.81,5.56,4.47,-11.18
7790,4,160.5,-55.75,5.84,5.82,-9.74
7800,1.25,136.69,-63.44,4.95,9.45,-8.49
7810,15.5,100.62,-70.25,4.95,9.45,-8.49
7820,41.69,52.06,-71.12,4.06,11.47,-9.08
7830,66.69,-3.56,-60.75,3.83,12.37,-10.45
7840,77.56,-61.63,-43.06,2.83,13.47,-12.79
7850,69.69,-112.37,-11.94,-0.91,16.45,-17.89
7860,52.38,-147.69,45.38,-2.7,17.41,-20.75
7870,38.56,-150.31,130.62,-3.75,16.8,-23.85
7880,32.63,-106.12,217.56,-2.21,12.06,-27.69
7890,25.44,-27,278.06,-1.52,9.6,-27.11
7900,11.31,56.19,307.12,-1.82,7.75,-25.29
7910,-8.75,120.12,331.69,-2.62,3.67,-20.79
7920,-37.5,153.25,361.44,-2.93,1.83,-19.52
7930,-65.56,169.94,391.44,-2.22,-0.27,-18.06
7940,-85.44,173.06,422.37,-1.91,-2.95,-17.32
7950,-108,164.75,446.31,-0.85,-8.96,-16.29
7960,-140.62,141.69,457.69,0.44,-12.21,-16.02
7970,-178.62,101.81,448.25,1.66,-15.13,-16.29
7980,-209.12,56.06,410.94,4.65,-18.41,-17.26
7990,-212.81,20.75,347.37,6.01,-18.54,-17.45
8000,-172.12,13.63,269.12,7.14,-18.07,-17.15
8010,-90.75,30.44,186.75,7.94,-17.38,-16.42
8020,5.44,49.44,106.69,8.15,-14.64,-14.54
8030,88.87,55.25,39.75,7.79,-12.63,-13.77
8040,146.12,43.88,-4.5,7.31,-10.69,-13.62
8050,172.19,19.62,-22,7.1,-8.91,-15.97
8060,158.31,-6.19,-19.81,7.37,-9.11,-17.63
8070,107.19,-19.94,-14.19,7.54,-9.33,-18.65
8080,40.25,-19.06,-11.31,7.78,-9.49,-18.68
8090,-16.12,-13.75,-14.19,7.97,-9.42,-16.89
8100,-41.56,-12.81,-24.12,8.1,-9.12,-15.9
8110,-28.06,-16.94,-39.63,8.29,-8.86,-15.44
8120,10.31,-29.19,-60.06,8.47,-7.37,-16.76
8130,60.38,-44.81,-82.94,8.25,-6.31,-18.45
8140,111.31,-56.13,-95.19,8.39,-5.96,-20.91
8150,140.5,-62.69,-101.81,8.8,-5.12,-26.41
8160,145.44,-53.75,-113.5,8.07,-4.35,-28.58
8170,137.75,-21.31,-119.81,7.7,-3.72,-30.16
8180,122.19,19.31,-117.25,7.55,-3.35,-31.29
8190,107.87,61.06,-112.12,7.49,-2.99,-32.26
8200,113.25,115.87,-106.81,8.69,-3.53,-30.94
8210,119.5,165.81,-105.19,7.15,-4.19,-30.62
8220,98.81,216.69,-110.19,7.45,-2.95,-26.54
8230,69.87,261.87,-101.81,7.65,-3.29,-24.67
8240,33.63,289.25,-86.81,8.48,-3.62,-22.75
8250,-9.13,309.75,-74.87,9.25,-3.53,-20.37
8260,-40.69,328.87,-63.75,10.1,-3.13,-15.11
8270,-56.56,337.19,-48.5,11.01,-3.36,-12.77
8280,-68,328.19,-34.56,12.16,-3.63,-10.61
8290,-77.62,305.56,-27.5,13.44,-3.59,-7.64
8300,-78.62,274.87,-23.94,14.19,-3.47,-6.66
8310,-68.5,242.06,-23.25,14.67,-3.35,-6.24
8320,-52,216.75,-23.81,15.04,-3.27,-5.98
8330,-32.75,205.25,-25.12,15.9,-3.03,-4.94
8340,-10.94,203.56,-31.19,16.27,-2.46,-3.56
8350,20.44,208.5,-40.75,16.41,-1.67,-2
8360,58.44,216.94,-46.19,16.45,-0.55,0.3
8370,83.5,219.44,-42.81,16.39,-0.05,1.69
8380,92.06,210.75,-37.69,16.41,0.65,2.43
8390,100,196.94,-26.19,15.11,1.79,3.77
8400,93.12,122.81,2.25,14.22,1.27,3.47
8410,61.06,47.44,36.13,15.62,0.82,1.9
8420,12.81,-2.81,77.31,16.4,-1.49,1.82
8430,-46.44,-53.31,112.56,16.21,-7.29,-0.38
8440,-96.75,-84.87,123.12,15.93,-9.82,-0.54
8450,-111.12,-107.87,120,16.46,-11.91,-0.69
8460,-83.5,-146.81,98.5,15.47,-14.2,-1.3
8470,-29.31,-190.94,56.31,15.6,-14,-3.84
8480,42.44,-175.87,2.56,14.04,-13.85,-6.46
8490,99.81,-149,-30.75,13.06,-13.69,-8.51
8500,110.62,-129.81,-50.38,12.4,-13.45,-11
8510,73.62,-117.75,-59.44,12.2,-13.56,-11.35
8520,19.81,-106.81,-65.87,11.89,-13.97,-11.37
8530,-23.81,-97.75,-76.5,13.64,-14.2,-9.94
8540,-34.06,-96,-111,13.02,-12.08,-9.18
8550,11.94,-92.69,-161.44,12.28,-9.16,-8.77
8560,105.12,-84.25,-195.62,11.87,-6.66,-8.82
8570,195.62,-86.19,-210.69,11.59,-3.49,-12.08
8580,236.87,-90.12,-214.31,11.77,-2.2,-14.81
8590,198.5,-79.12,-204.62,11.76,-1.22,-16.56
8600,94.87,-60.06,-189.06,11.58,1.1,-16.18
8610,-18.44,-32.19,-168.56,11.86,2.07,-14.42
8620,-96.31,3.75,-142.12,12.41,2.5,-12.05
8630,-125.44,34.69,-122.62,13.14,2.98,-7.61
8640,-114.56,50.06,-116.75,13.57,3.93,-5.87
8650,-75.94,54.25,-119.31,13.49,4.51,-4.82
8660,-31.06,47.44,-125.69,13.56,5.36,-4.1
8670,-1.56,26.62,-131.31,12.91,6.82,-3.81
8680,4.87,-7.12,-131.31,12.42,7.83,-3.99
8690,-1.25,-43.81,-123.69,11.94,8.8,-4.4
8700,-7.06,-70.44,-107.31,11.04,10.07,-5.27
8710,-10.63,-81.44,-77.5,10.75,9.93,-5.47
8720,-16.87,-84.44,-38.19,10.92,9.2,-5.46
8730,-29.69,-88.12,-1.12,11.32,8.02,-5.57
8740,-49.88,-95.31,21.06,11.74,6.51,-4.62
8750,-66.12,-105.81,29,11.62,6.5,-3.69
8760,-62.56,-121.87,27.56,11.14,6.72,-2.93
8770,-35.13,-146.69,23.69,9.53,7.55,-2.72
8780,4.87,-176.62,25.37,8.24,7.72,-3.54
8790,45.13,-208.06,38.69,7.23,7.83,-5.73
8800,63.31,-228.25,66.56,7.28,7,-7
8810,50.63,-245.06,96.19,6.76,4.43,-8.45
8820,24.12,-258.06,117.06,6.77,2.82,-8.86
8830,2,-277,127.56,6.26,1.14,-9.49
8840,-11.19,-299.5,122.81,4.93,-0.18,-9.99
8850,-6.56,-323.25,109.69,3.51,-0.42,-10.75
8860,18.5,-348.87,96.94,1.61,-0.57,-11.9
8870,56.94,-374,85.12,-0.29,-0.27,-14.82
8880,96.81,-392.44,79.56,-1.76,-0.41,-17.08
8890,125.12,-397.69,82.87,-2.33,-0.76,-19.19
8900,121.87,-390.94,103.37,-2.85,-2.32,-21
8910,80,-396.25,123.25,-3.02,-5.14,-24.32
8920,30.5,-397.5,119.62,-3.21,-5.65,-25.2
8930,-2.56,-382.06,114.56,-4.43,-6.89,-26.2
8940,-20.12,-371.12,97.44,-6.27,-7.2,-27.19
8950,-10.13,-351.37,70.19,-6.63,-6.99,-27.64
8960,28.81,-316.81,43.56,-8.68,-6.97,-29.19
8970,44.56,-278,21.69,-9.34,-6.19,-29.43
8980,20.06,-247.12,15.63,-9.09,-5.93,-27.78
8990,-24.87,-240.62,18.25,-9.18,-5.68,-27.26
9000,-60.06,-249.81,16.69,-9.66,-5.32,-27.15
9010,-68.31,-261,12.63,-10.99,-5.88,-29.28
9020,-64.37,-271.5,-6.25,-12.51,-4.88,-30.23
9030,-33.88,-269,-34.56,-13.85,-3.72,-32.08
9040,10.69,-233.5,-50.06,-14.34,-3.19,-36.83
9050,26.5,-174.37,-55.13,-14.52,-2.95,-37.81
9060,3.37,-102.5,-57.94,-14.8,-2.56,-37.73
9070,-34.81,-22.87,-54.56,-14.64,-2.44,-36.57
9080,-62.25,52,-47.25,-13.84,-2.46,-32.47
9090,-56,117.19,-48.5,-13.38,-2.05,-30.27
9100,-16.44,174.31,-58.88,-12.63,-1.62,-28.68
9110,26.62,218.69,-67,-11.77,-1.51,-27.47
9120,40.5,254.31,-67.31,-10.98,-1.44,-26.61
9130,17.87,282,-64.19,-10.36,-1.3,-25.18
9140,-12.25,307.19,-55.31,-9.67,-1.35,-23.57
9150,-31.81,331.81,-44.31,-7.7,-2.24,-20.2
9160,-44.38,349.62,-36.94,-6.3,-2.89,-19
9170,-58.5,355.56,-34.31,-4.99,-3.4,-17.72
9180,-69.69,357.94,-40.5,-3.09,-3.33,-14.1
9190,-63.25,359.25,-54.06,-2.05,-2.88,-12.32
9200,-41,353.81,-68.56,-0.84,-2.36,-10.75
9210,-14.75,335.56,-81.12,0.53,-1.86,-9.38
9220,5.75,301.31,-93.75,1.65,-0.53,-7.71
9230,19.12,257.56,-102.06,2.45,0.27,-7.18
9240,26.69,209.56,-102.81,3.29,0.99,-6.85
9250,29.12,153.19,-97,4.61,2.31,-6.93
9260,28.81,88.56,-89.37,4.87,3.32,-7.44
9270,40.25,31.75,-83.25,5.07,4.07,-8.58
9280,63.13,-9.25,-74.62,5.02,4.28,-10.07
9290,75.44,-38.44,-68.44,5.21,5.42,-12.74
9300,71.62,-54.69,-65.75,4.81,6.45,-13.09
9310,68.5,-64.81,-61.63,3.76,7.48,-13.41
9320,71.19,-81.75,-49.56,1.76,9.31,-15.9
9330,69.56,-111.31,-28.12,0.43,10.09,-17.88
9340,61.69,-147.62,7.94,-0.71,10.59,-20.49
9350,63.19,-164.06,56.13,-2.39,10.29,-26.38
9360,79.19,-137.75,106.19,-2.47,9.53,-28.7
9370,79.19,-137.75,106.19,-2.19,8.16,-30.01
9380,86.94,17.62,200.69,-2.24,6.39,-29.97
9390,36.94,94.12,236.69,-3.52,3.59,-25.41
9400,-34.31,137.56,272.56,-3.93,2.49,-22.71
9410,-76.62,159.62,311.81,-3.5,0.52,-20.96
9420,-90.5,172.37,351.81,-2.06,-4.54,-18.58
9430,-106.87,178.06,378.69,-0.99,-6.94,-16.81
9440,-130.12,175.44,391.5,0.14,-9.27,-14.74
9450,-152.19,159.94,391.81,1.12,-11.64,-12.81
9460,-169.62,121.31,380.06,3.84,-16.49,-11
9470,-169.62,121.31,380.06,5.22,-18.09,-11.07
9480,-176.5,57.94,345.87,5.97,-18.6,-11.89
9490,-104.56,-68.37,197.31,5.69,-16.72,-14.73
9500,-17.94,-94,109.19,4.82,-14.83,-16.48
9510,81.62,-92.31,36.56,4.02,-13.05,-18.16
9520,81.62,-92.31,36.56,2.47,-9.93,-20.4
9530,158.87,-75.19,-10,1.95,-8.82,-21.28
9540,162.37,-53.19,-35.81,1.98,-8.25,-21.93
9550,99,-47.06,-23.25,2.1,-8,-21.86
9560,25.87,-40.69,-9.38,2.38,-7.7,-19.94
9570,25.87,-40.69,-9.38,2.82,-8.22,-19.22
9580,-20.87,-34,2.37,3.5,-9.01,-19.12
9590,-35.75,-25.62,0.75,3.64,-8.15,-18.53
9600,-27.44,-26.37,-20,3.54,-7.15,-18.2
9610,4.44,-23.69,-38.5,3.67,-6.45,-18.32
9620,4.44,-23.69,-38.5,3.55,-5.68,-18.59
9630,39.81,-22.75,-52.38,2.83,-3.25,-19
9640,64.25,-38.25,-65.37,2.48,-2.36,-19.48
9650,66.81,-47.13,-57.94,2.44,-1.75,-20.18
9660,61.81,-55.31,-42.38,2.15,-1.84,-22.81
9670,61.81,-55.31,-42.38,1.95,-2.4,-24.1
9680,42.63,-59.19,-21.94,2.01,-2.89,-24.83
9690,-22.31,-48.81,10.88,2.07,-3.07,-25
9700,-30.94,-31.25,15.75,2,-2.86,-24.87
9710,-18.25,-11.5,14.25,1.61,-2.07,-24.68
9720,-18.25,-11.5,14.25,1.61,-2.07,-24.68
9730,10.56,5.12,10.13,1.25,-1.27,-25.1
9740,44.38,37.81,34.88,0.85,-2.73,-29.57
9750,7.75,59.19,56.56,0.84,-4.15,-30.21
9760,-41.56,87.75,76.75,1.49,-7.2,-29.66
9770,-41.56,87.75,76.75,1.49,-7.2,-29.66
9780,-77.69,122.87,84.44,1.79,-8.08,-28.69
9790,-55,212.06,56.19,1.83,-8.16,-25.42
9800,-14.81,245.37,38.69,2.15,-8.9,-24.1
9810,20.56,264.94,22.56,2.52,-9.11,-23.61
9820,20.56,264.94,22.56,2.52,-9.11,-23.61
9830,41.19,284,5.12,3.14,-9.27,-22.89
9840,48.63,312.75,-23.12,4.19,-9.87,-21.05
9850,48.63,312.75,-23.12,5.49,-10.28,-19.73
9860,42.56,329.56,-31.5,5.98,-9.73,-18
9870,38.44,345,-48.81,5.98,-9.73,-18
9880,50.38,361.31,-70.69,6.76,-8.92,-15.32
9890,70.44,372.37,-86.12,8.47,-7.19,-11.97
9900,90.31,381.87,-106.37,9.27,-5.62,-9.23
9910,104.94,389.87,-122.56,10.33,-5.01,-7.72
9920,103.75,385,-127.19,10.33,-5.01,-7.72
9930,83.62,370.25,-123.06,10.24,-4.6,-6.28
9940,56.06,359.37,-115.62,12.24,-3.31,-0.86
9950,29.06,341.81,-100.37,13.12,-3.01,0.61
9960,14.94,312.06,-85.25,13.58,-3.07,1.65
9970,13.31,276.94,-70.5,13.58,-3.07,1.65
9980,19.25,247.94,-51.31,14.01,-4.41,2.32
9990,26.31,231,-35.31,14.56,-5.1,4.65
10000,30,213.75,-28.5,13.15,-6.02,7.59
