timestamp,gyrox,gyroy,gyroz,accx,accy,accz
10,6.56,8.19,16.87,-1.45,-2.57,-0.2
20,6.56,8.19,16.87,-1.66,-2.81,1.64
30,-1.37,0.06,33.31,-1.23,-1.94,1.78
40,0.25,8.5,56.13,-1.23,-1.94,1.78
50,11.38,25.81,75.62,-0.65,-0.91,1.01
60,19.87,41.13,79,-0.28,0.08,-1.99
70,21.56,49.5,73.31,-0.07,-0.01,-2.41
80,22.69,41.44,64.87,-0.12,-0.55,-2.3
90,26.75,15.38,54.63,-0.12,-0.55,-2.3
100,30.06,-13.69,49.81,0.07,-1.34,-0.05
110,28.81,-37,50,-0.12,-1.68,2.85
120,28.87,-44.13,53.94,0,-1.2,3.38
130,37.13,-28.87,62,0.9,0.51,1.1
140,48.38,1.12,69.81,0.9,0.51,1.1
150,50.63,32.69,72.06,1.1,1.33,-0.09
160,47.5,50.94,70.12,1.83,3.09,-1.65
170,51.56,53.88,63.63,2.45,4.23,-2.6
180,64.87,34.13,47.75,2.57,4.46,-2.07
190,76.5,5.19,24.75,2.57,4.46,-2.07
200,78.69,-21.56,3.44,2.56,4.67,-1.14
210,69.37,-32.94,-14.25,2.08,4.31,-0.48
220,49.31,-23,-30.87,1.85,3.97,-0.73
230,19.62,-8.44,-43.06,1.58,3.63,-0.97
240,-13.69,0.94,-47.5,1.58,3.63,-0.97
250,-37.88,1.31,-44.88,1.7,4.09,-0.29
260,-43,-8.38,-37.63,2.69,6.27,0.65
270,-29.81,-20.37,-32.19,3.38,7.19,1.07
280,-15.25,-27.12,-39.69,3.84,7.04,1.77
290,-3.12,-30.5,-63.69,3.84,7.04,1.77
300,1.12,-27.12,-98.87,3.57,5.86,2.06
310,-11.06,-14.25,-131.69,1.58,2.34,2.2
320,-31.37,6.87,-150.44,0.05,0.34,1.09
330,-40.75,25.25,-148.5,-0.07,0.28,0.39
340,-37.56,32.5,-130.31,-0.07,0.28,0.39
350,-36.63,28.94,-105.87,0.06,0.57,0.11
360,-41.25,21.19,-84.81,1.06,1.78,0.65
370,-42,16.87,-72.69,0.92,1.43,0.68
380,-37.31,16.69,-73.94,0.93,1.12,0.46
390,-35.88,21.87,-78.25,0.93,1.12,0.46
400,-35.75,29.5,-77.37,1.16,1.05,-0.56
410,-39.19,37.75,-74.19,1.86,1.39,-2.01
420,-50.19,43.25,-74.5,2.03,1.09,-2.35
430,-66.06,40.75,-82.56,2.01,-1.02,-2.04
440,-82.19,30.31,-96.5,2.01,-1.02,-2.04
450,-95.75,17.5,-112.56,1.64,-2.58,-1.44
460,-104.44,6.75,-122.94,1.1,-5.25,-0.09
470,-106.81,-0.13,-120.94,0.56,-6.79,0.73
480,-100.5,-3.37,-108.19,0.47,-6.8,1.06
490,-88.69,-3.31,-86.56,0.47,-6.8,1.06
500,-72.56,-0.75,-57.63,0.79,-6.04,1.21
510,-57.5,6,-33.5,1.42,-4.28,0.63
520,-49.38,13.81,-24.87,1.2,-4.64,0.4
530,-46.56,19.44,-24.81,1.2,-4.64,0.4
540,-45.25,24.31,-22.81,0.97,-5,0.06
550,-43.88,29.31,-15.38,0.67,-5.26,-1.28
560,-43.44,26.81,-2.19,0.82,-4.88,-1.71
570,-40.5,15.31,13.69,1.14,-4.16,-1.45
580,-29.94,-3.75,29.12,1.67,-2.79,-0.51
590,-8.38,-21.37,40.31,3.44,0.31,1.06
600,16.69,-35.56,38.13,4.2,0.92,1.57
610,34.88,-44.63,20.19,4.89,0.9,1.89
620,42.69,-43.25,-6.75,5.2,0.33,2.4
630,41.31,-34.75,-32.5,5.75,-1.65,3.59
640,40.44,-22.44,-51.81,5.62,-2.45,4.14
650,45.81,-1.12,-60.5,5.6,-2.75,4.35
660,56.69,23,-57.88,5.77,-2.54,3.68
670,70.62,43.94,-50.06,5.67,-2.76,2.87
680,75.37,62.06,-42.63,5.32,-3.13,1.98
690,65.31,72.69,-24.87,5.17,-3.03,1.38
700,46,74,4.31,5.6,-1.97,1.57
710,28.75,69.87,35.25,5.51,-0.58,2.58
720,26.5,67.94,62.63,6.28,1.02,3.51
730,43.31,76.5,74.75,6.56,2.63,4.09
740,64.69,105.37,55.75,5.23,3,2.13
750,69.31,166.44,8.94,3.91,1.32,-0.22
760,43.44,259.69,-39.44,1.62,-0.8,-4.05
770,-2.31,325.62,-66.62,-2.13,-5.12,-11.39
780,-41.25,344.37,-56.81,-4.18,-5.56,-14
790,-64.37,306.62,-1.75,-5.31,-3.83,-14.57
800,-59.94,211,76.56,-4.49,-0.15,-12.83
810,-9.63,85.25,136.37,-2.58,7.29,-7.49
820,60.19,-21.94,148.12,-1.5,9.64,-5.36
830,93.5,-79.31,106.12,-1.58,10.16,-3.15
840,74.56,-82.06,10.81,-3.22,7.96,-1.68
850,22.25,-40.31,-90.94,-6.48,-0.85,-1.32
860,-38,14.06,-152,-7.74,-4.18,-1.24
870,-68.81,47.31,-156.44,-8.62,-5.71,-1.26
880,-55.56,47.75,-116.12,-8.75,-5.82,-1.5
890,-26.44,26.06,-56.19,-7.38,-3.12,-0.84
900,-2.75,-11,18.12,-6.56,-1.09,-0.29
910,-2.75,-11,18.12,-5.14,0.5,-0.26
920,-8.38,-8.56,10,-6.18,-0.6,-1.45
930,-52.38,5.69,-24.31,-6.08,-1.39,-1.07
940,-37.5,-6.12,-26,-6.11,-2.3,-1.83
950,-35.13,-22.69,-19.62,-6.14,-2.87,-2.85
960,-36.56,-42.5,-7,-5.99,-3.06,-2.4
970,-23.81,-62,7.5,-5.23,-2.53,-2.19
980,-11.94,-77.87,11.19,-4.16,-2.07,-2.07
990,-17.37,-87.62,0.94,-3.5,-2.34,-1.9
1000,-31.06,-88.19,-10.44,-3.29,-4.57,-0.14
1010,-34.56,-80.94,-8.56,-3.53,-5.72,0.38
1020,-28.62,-69.25,13.31,-3.62,-6.29,0.26
1030,-25.44,-58.19,44.88,-2.95,-5.59,-1.41
1040,-31.81,-52.88,73.19,-2.35,-4.61,-2.29
1050,-39.56,-56.44,91.75,-1.65,-3.51,-2.84
1060,-41,-70.25,95.94,-0.85,-2.56,-3.18
1070,-36.63,-91.25,88.31,0.04,-1.9,-2.82
1080,-25.5,-114.81,78.12,0.26,-2.35,-2.12
1090,-9,-135.87,72.81,0.27,-3.12,-1.53
1100,6.19,-152,79.56,0.34,-3.59,-1.05
1110,13.75,-158.69,93.56,0.85,-2.72,0.54
1120,14.19,-153,105.19,1.27,-2.01,1.03
1130,9.69,-141.75,109.19,1.82,-1.44,1.22
1140,2.44,-127.94,106.62,2.09,-1.08,1.33
1150,-5,-116.06,101.69,2.68,-0.55,1.84
1160,-5.31,-103.5,96.25,2.9,-0.46,2.14
1170,2.37,-90.94,89.5,2.95,-0.46,2.32
1180,12.13,-77.06,83.19,2.81,-0.56,2.08
1190,22.87,-68.25,81.06,2.81,-0.23,1.96
1200,38.69,-68.19,83.56,3.05,0.35,1.57
1210,50.06,-79.06,85.44,3.13,0.79,1.09
1220,45.44,-101.37,89.87,3.25,1.3,1.29
1230,25.87,-129.62,99.56,3.49,1.41,2.34
1240,0,-161.25,114.56,3.14,1.22,2.65
1250,-37.5,-168.19,133.06,4.15,1.69,3.94
1260,-69.81,-105.31,150,3.67,5.66,10.49
1270,-36,-19.44,142.44,4.22,8.17,11.24
1280,38.5,63.81,100.62,5.04,10.01,9.23
1290,93.12,130.81,38.94,5.97,11.89,2.32
1300,111.19,168.81,-32.44,6.01,11.68,0.02
1310,106.06,193.5,-105.5,5.6,10.31,-0.86
1320,82.37,206.12,-156.87,3.87,7.98,-3.56
1330,29.62,161.56,-170.75,2.39,4.4,-6.89
1340,-15.69,113.12,-158.06,2.23,3.85,-6.49
1350,-31.62,47.69,-129.56,2.15,4.08,-5.47
1360,-25.12,-9.88,-101.25,2.54,5.32,-3.34
1370,-15.75,-41.69,-93.19,3.73,7.42,0
1380,-14.88,-50.94,-109.06,3.81,7.51,1.37
1390,-18.31,-39.5,-133.31,3.3,6.99,2.13
1400,-29.44,-11.31,-152.44,3.02,6.13,2.18
1410,-52.38,20.81,-163.94,2.21,3.78,1.37
1420,-75.37,43.5,-171.75,1.82,2.56,1.01
1430,-88.75,57.06,-172.31,1.33,1.42,0.62
1440,-94.25,65.19,-168.31,1.24,-0.6,-0.48
1450,-98.12,72.37,-167.62,1.18,-1.73,-1.07
1460,-104.37,77.62,-169.44,1.02,-2.98,-1.45
1470,-107.94,74.06,-166.44,0.7,-4.27,-1.93
1480,-104.44,70.06,-162.31,-0.37,-7.66,-3.67
1490,-96.25,58.81,-146.44,-1.4,-9.15,-4.46
1500,-84.37,34,-104.31,-1.96,-10.01,-4.85
1510,-67.87,0.5,-44.88,-2.23,-9.9,-4.63
1520,-46.44,-30.56,11.81,-0.7,-5.68,-2.36
1530,-24.75,-47.69,42.81,0.01,-3.36,-1.63
1540,-15.88,-47.75,44.63,0.55,-1.71,-1.12
1550,-21.19,-38,26.06,0.98,-0.52,-0.37
1560,-29.62,-24.81,-2.87,0.68,-1.38,-0.22
1570,-32.31,-14.13,-28.37,0.25,-2.74,-0.21
1580,-25.62,-8.44,-39.25,-0.23,-3.9,-0.15
1590,-11.31,-6.12,-35.19,-0.98,-5.1,-0.48
1600,4.19,-4.75,-19.25,-0.99,-4.62,-1.08
1610,13.69,-7.87,-1,-0.59,-3.65,-1.65
1620,15,-17.56,8.69,-0.22,-2.73,-1.81
1630,9.69,-28.81,8.75,0.17,-2.13,-0.94
1640,1.81,-36.25,4.75,0.09,-2.34,-0.2
1650,-4.62,-33.94,2,-0.27,-2.87,0.13
1660,-8.5,-23.62,4.81,-0.6,-3.44,-0.1
1670,-5.87,-16.62,13.5,-0.69,-3.2,-1.18
1680,3.37,-18.5,22.25,-0.56,-2.62,-1.51
1690,14.25,-26.94,25.81,-0.33,-1.93,-1.45
1700,21.87,-33.38,22.12,-0.21,-1.6,-1.14
1710,22.44,-33.06,12.25,-0.42,-2.47,-1.38
1720,15.81,-30,6,-0.7,-3.63,-1.68
1730,7.31,-29.25,10.31,-0.98,-4.67,-1.66
1740,4.75,-31.81,26.12,-1.03,-5.04,-1.13
1750,9.56,-36.75,45.69,-0.82,-4.53,-0.68
1760,18.56,-38.75,59.19,-0.58,-4.01,-0.32
1770,28.81,-38,65.25,-0.5,-3.57,-0.16
1780,36.25,-34.44,67.44,-0.81,-3.19,-0.17
1790,38.25,-28.06,70.69,-0.97,-3.22,-0.54
1800,34.13,-21.37,78.62,-1.03,-3.21,-1.12
1810,23.56,-18.62,91.94,-1.02,-3.11,-1.67
1820,13.19,-22.12,109.5,-0.47,-1.84,-2.29
1830,10.69,-36.19,125.69,0.07,-1.13,-2.21
1840,12.94,-58.63,134.87,0.59,-0.5,-1.53
1850,18.75,-82.5,138,1.37,0.72,0.91
1860,34.31,-109.5,137.56,2.1,1.41,2.44
1870,57.88,-114.06,126.31,1.67,1.62,3.5
1880,77.12,-96.62,111.06,1.75,1.67,3.94
1890,80.44,-63,97.87,1.07,1.54,3.08
1900,67.37,-25.25,90.69,0.76,1.75,2.27
1910,55.13,-1.12,94.12,0.83,2.49,1.69
1920,55,9.56,98.62,1.09,3.47,0.92
1930,58.88,3.56,92.44,1.94,5.39,0.61
1940,67.81,-11.19,68.62,1.96,5.4,0.96
1950,79.75,-26.31,34.38,1.83,4.51,1.33
1960,81.94,-34.31,2.87,0.51,0.83,2.35
1970,71.75,-30.37,-10.31,-0.26,-0.82,2.75
1980,57.56,-13.38,-0.37,-0.99,-1.94,2.6
1990,47.13,8.31,32.5,-0.69,-1.58,1.93
2000,43.94,21,68.37,0.45,2.06,0.16
2010,42.44,24.62,90.25,1.11,4.01,-0.29
2020,39.38,20.69,93.12,1.78,5.61,-0.4
2030,37.56,10.13,74.25,2.5,6.58,-0.31
2040,36.63,-5,38.69,1.88,5.93,0.75
2050,36.63,-5,38.69,1.41,4.76,1.38
2060,17.12,1.19,-15.94,0.76,3.58,1.63
2070,9.81,15,-20,0.54,2.94,1.29
2080,7.06,26,-15.5,0.51,3.53,0.41
2090,11.25,32.63,-10.88,0.91,4.54,-0.05
2100,23,31.06,-12.75,1.39,5.35,-0.48
2110,34.19,19.94,-23.87,2.08,5.94,-0.82
2120,35,5.87,-40.31,2.17,5.67,-0.31
2130,21.94,-1.25,-56.38,1.99,5.14,0.52
2140,5.69,3.19,-65.75,1.88,4.85,1.17
2150,5.69,3.19,-65.75,2.29,4.58,0.88
2160,-2.69,15,-70.75,2.18,4.03,0.63
2170,-18.56,32,-89.94,1.88,3.17,0.47
2180,-30.19,39.63,-98.87,1.57,2.11,0.2
2190,-32.94,43.44,-101.25,0.68,0.17,-0.49
2200,-32.94,43.44,-101.25,0.59,-0.04,-0.86
2210,-29,39,-93.37,0.69,0.06,-0.87
2220,-29.44,18,-64.69,0.91,0.49,-0.41
2230,-35.81,13.38,-56.31,1.01,0.72,-0.15
2240,-41.63,14.5,-52.38,1.07,0.92,-0.26
2250,-41.63,14.5,-52.38,1.32,1.13,-0.5
2260,-46.75,18.56,-51.19,1.43,0.67,-0.72
2270,-60.38,25.62,-63.38,1.23,0.07,-0.68
2280,-65.56,29.5,-71.75,1,-0.52,-0.63
2290,-66.19,32.19,-76.12,0.82,-1.04,-0.52
2300,-66.19,32.19,-76.12,0.82,-1.04,-0.52
2310,-61.5,30.25,-75.44,0.64,-1.72,-0.35
2320,-42.81,18.75,-69.44,0.81,-1.97,0
2330,-38.94,15.75,-65.31,1.19,-1.79,0.82
2340,-40.44,19.37,-63.38,1.42,-1.78,1.08
2350,-40.44,19.37,-63.38,1.42,-1.78,1.08
2360,-42.88,30.31,-65.81,1.29,-2.3,0.41
2370,-54.88,59.13,-78,1.17,-3.3,-0.5
2380,-64.12,68.87,-82.25,0.86,-3.89,-0.68
2390,-73.12,73.94,-84.44,0.58,-4.55,-0.72
2400,-73.12,73.94,-84.44,0.58,-4.55,-0.72
2410,-73.81,71.19,-81.87,0.17,-5.07,-0.73
2420,-28.81,59.31,-62.69,0.16,-5.56,-3.66
2430,-13.75,35.63,-50.38,0.21,-5.58,-3.81
2440,-14.06,4.31,-34.5,0.25,-5.47,-3.06
2450,-14.06,4.31,-34.5,0.25,-5.47,-3.06
2460,-19.12,-20.37,-15.25,0.87,-4.27,-0.59
2470,-17.06,-34.31,15.31,1.77,-2.8,0.39
2480,-18.19,-29.19,21.62,2.67,-1.49,0.34
2490,-23.5,-21.31,23,3.16,-1.13,0.22
2500,-23.5,-21.31,23,3.16,-1.13,0.22
2510,-24.5,-16.5,20.31,3.51,-0.86,0.07
2520,3,-23.56,8.31,4.25,-1.1,0.01
2530,21.5,-33.69,0.88,4.22,-1.63,-0.02
2540,29.94,-43,-2.31,4.18,-1.97,0.07
2550,29.94,-43,-2.31,4.18,-1.97,0.07
2560,27,-50.94,2.94,4.17,-1.99,0.38
2570,25.62,-62.75,24.87,3.62,-1.65,1.7
2580,28.31,-70.75,37.38,3.55,-1.34,2.3
2590,25.5,-70.81,54.56,3.23,-0.73,2.99
2600,25.5,-70.81,54.56,3.23,-0.73,2.99
2610,21,-61.69,70.31,3.16,1.77,4.63
2620,24.31,-33.69,81.81,3.88,4.58,4.06
2630,39.25,-2,79.62,2.57,4.47,1.83
2640,52.88,26.62,55.44,1.29,3.35,0.75
2650,51.25,54.19,22.37,1.29,3.35,0.75
2660,32.31,78.94,-5.69,0.06,2.05,-0.04
2670,4.87,101.81,-18.81,-2.96,-0.42,-2.37
2680,-21.81,121.69,-18.12,-3.3,-0.5,-2.62
2690,-43.88,124.81,-7.81,-3.76,-0.01,-2.82
2700,-56.94,119.44,9.44,-3.76,-0.01,-2.82
2710,-56.56,114.94,27.44,-3.43,0.89,-3.42
2720,-49.31,104.31,35.69,-3.64,1.39,-3.73
2730,-43.88,85.81,23.37,-4.13,0.86,-2.68
2740,-42.13,60.94,8.94,-4.9,-0.53,-0.78
2750,-51,44.19,-0.62,-4.9,-0.53,-0.78
2760,-52.81,35.63,-8.5,-5.35,-1.51,-0.4
2770,-46.88,28.37,-11.63,-5.71,-1.7,1.11
2780,-39.69,23.44,-4.44,-5.05,0,0.77
2790,-25.44,25.12,7.5,-4.72,0.37,-0.28
2800,-6.81,32.19,15.44,-4.72,0.37,-0.28
2810,-1.06,39.31,11.5,-4.85,0.24,-1.08
2820,-12.44,42.25,1.62,-5.13,-0.85,-2.28
2830,-22.56,37.88,-6.06,-5.14,-1.18,-2.52
2840,-18.31,26.37,-9.56,-4.98,-1.38,-2.48
2850,-1.81,-13.88,-6.75,-4.98,-1.38,-2.48
2860,3.81,-29.69,-4.12,-4.95,-1.33,-2.01
2870,3.81,-29.69,-4.12,-3.52,-1.28,-1.44
2880,15.69,-39.81,-7.69,-3.2,-1.63,-1.76
2890,13.31,-42.88,-8.81,-2.83,-1.87,-2.11
2900,6.5,-46,-4.81,-2.83,-1.87,-2.11
2910,1.06,-52.69,0.06,-2.34,-1.67,-2.42
2920,-0.81,-63.56,0.5,-2.01,-1.47,-2.15
2930,4.44,-74.62,-2.37,-1.92,-1.88,-1.72
2940,12.31,-82.87,-8.81,-2.11,-2.38,-1.66
2950,18.94,-85.25,-14.31,-2.11,-2.38,-1.66
2960,27.06,-87.5,-14.06,-1.96,-2.95,-2.18
2970,26.62,-93.06,-8.94,-1.85,-4.05,-2
2980,29.81,-102.37,2.81,-1.43,-3.95,-1.65
2990,49.31,-121.37,21.25,-0.78,-3.49,-1.34
3000,64.25,-137.81,40.19,-0.78,-3.49,-1.34
3010,64.25,-146.69,53.63,0.33,-2.16,0
3020,58.69,-150.31,61.5,0.95,-1.19,1.04
3030,51.44,-136.12,61.19,1.16,-1.19,1.19
3040,41.13,-114.19,57.25,1.53,-1.5,1.14
3050,31.69,-92.25,54.5,1.53,-1.5,1.14
3060,27.62,-79.44,53,1.55,-1.9,1.07
3070,32.38,-74.75,55.56,1.9,-2.33,1.28
3080,44.94,-75.19,62.31,2.52,-2.11,1.83
3090,58.88,-78.44,69.56,2.83,-2.01,2.21
3100,71.31,-79.87,74.69,2.83,-2.01,2.21
3110,80.69,-74.25,77,2.91,-2.07,2.53
3120,83.81,-57.94,80.69,2.87,-2.24,2.84
3130,79.69,-31.56,87.75,2.53,-1.91,3.07
3140,73,-2.37,95.5,2.57,-1.48,3.06
3150,74.12,20.06,103.19,2.81,-0.66,2.81
3160,82.81,33.69,106.37,3.56,1.33,1.34
3170,87.31,39.63,101.44,3.67,2.02,0.89
3180,88,38.25,93,3.86,2.83,0.99
3190,94.12,33.88,80.12,4.05,3.79,1.16
3200,100.12,31.75,58.06,4.44,5.05,0.68
3210,95.44,33.44,30.69,4.13,5.02,0.33
3220,77.06,36.75,6.44,3.61,4.79,0.1
3230,54.81,37.44,-10.88,3.34,4.51,0.02
3240,43.13,32.44,-22.44,2.74,4.11,0.8
3250,48.31,24.31,-30.62,2.65,4.01,1.27
3260,61.69,18.69,-35.88,2.38,4,1.81
3270,71.69,23.75,-38.94,1.8,4.21,2.24
3280,76.25,41.88,-38.81,1.58,4.75,1.87
3290,77.75,67.12,-40.13,1.37,5.22,1.08
3300,70.87,93.56,-44.25,1.39,5.56,0
3310,50.25,106.37,-54,1.66,5.72,-2.26
3320,25.94,99.87,-68.25,1.5,5.55,-2.87
3330,5,83.19,-82.56,1.16,5.15,-3.39
3340,-11.63,58.94,-93.31,0.98,4.67,-3.44
3350,-22.44,34.63,-99.87,0.61,3.64,-2.49
3360,-28.62,15.13,-106.31,0.37,3.02,-1.7
3370,-35.25,5.12,-109.69,0.11,2.37,-1.02
3380,-42.69,4.94,-106.25,-0.17,1.89,-0.42
3390,-44.31,10,-97.06,-0.13,1.84,0.46
3400,-38.81,17.37,-90.06,-0.06,2.06,0.45
3410,-34.81,26.56,-88.87,-0.06,2.18,0.05
3420,-39.69,34.13,-92.62,0.19,1.95,-1.37
3430,-50.94,35.63,-100.81,0,1.33,-1.85
3440,-65.44,30.62,-109.56,-0.13,0.52,-2.08
3450,-73.37,17.37,-111.56,-0.12,-0.27,-1.76
3460,-69.56,3.19,-107.5,-0.18,-1.64,-0.97
3470,-64.37,0.25,-104.81,-0.3,-2.63,-1.67
3480,-75.62,7.56,-107.37,-0.77,-4.17,-2.79
3490,-101.94,12,-103.75,-1.34,-5.96,-3.87
3500,-125.19,-2.62,-79.94,-3.15,-8.84,-4.77
3510,-124.12,-48,-21.81,-2.65,-7.98,-2.72
3520,-72.56,-109.25,46.5,-1.11,-4.75,1
3530,26.87,-160.31,85.25,2.27,2.4,5.45
3540,122.19,-194.62,79.75,3.44,4.74,6.4
3550,172.94,-181.12,29.19,4.32,5.32,4.62
3560,139.19,-107.69,-52.13,3.52,4.35,3.9
3570,33.56,1.94,-126.06,1.8,-1.27,2.16
3580,-65.81,88.44,-170.25,0.65,-4.04,1.79
3590,-121.62,184.69,-180.19,-0.16,-5.97,1.69
3600,-134.56,220.87,-150.69,-2.31,-7.58,-1.31
3610,-105.44,160.06,-93.37,-1.85,-8.33,-5.76
3620,-66.56,97.62,-31.75,-1.53,-7.39,-6.81
3630,-21.44,10.44,26,-0.76,-5.55,-6.38
3640,22.69,-72.81,60.94,0.12,-3.79,-4.94
3650,42.88,-127.62,75.25,0.73,-1.65,-1.11
3660,34.06,-151.81,81.12,0.66,-0.86,0.8
3670,15.38,-150.19,81.81,1.33,0.14,3.04
3680,6.06,-109.44,70.5,1.23,2.06,5.22
3690,12.19,-52.69,50.56,1.38,2.88,4.62
3700,22,2.75,19.44,1.39,3,3.08
3710,20.25,41.5,-15.94,1.19,2.35,1.5
3720,2.06,63.44,-45.56,0.25,-0.37,-0.95
3730,-27.31,70.31,-63.44,-0.4,-1.92,-1.46
3740,-52.5,66.5,-65.37,-1.04,-3.31,-1.96
3750,-64.06,50.06,-52.56,-1.32,-4.46,-2.27
3760,-61.63,28.25,-28,-2.25,-5.59,-1.95
3770,-42.94,-0.56,7.56,-2.12,-4.84,-1.06
3780,-9.69,-26.69,41.31,-1.53,-3.44,-0.11
3790,24.25,-41.81,59.94,-0.71,-0.69,0.63
3800,41.31,-43,59.75,-0.37,-0.03,0.39
3810,32.5,-31.56,45.25,-0.29,0.15,0.16
3820,6.5,-13.25,23.94,-0.3,-0.17,0.1
3830,-19.44,2.12,2.56,-0.86,-2.57,-0.04
3840,-33.44,11,-10.94,-1.2,-4.01,0
3850,-32.56,8.44,-10.25,-1.7,-5.22,0.26
3860,-18.75,2,6.87,-2.13,-5.91,0.55
3870,2.19,-1.81,37.56,-1.79,-4.82,0.68
3880,21.62,-3.25,67.56,-1.22,-3.59,0.45
3890,29.44,-4.12,86.5,-0.79,-2.56,0.28
3900,21.56,-3,92.94,-0.45,-1.79,0.38
3910,7.06,3.12,90.31,-0.23,-0.82,1.14
3920,0.81,16.62,83.25,-0.19,-0.53,0.95
3930,12.44,29.56,78.31,-0.13,-0.21,0.22
3940,33.06,28.44,73,0.2,0.55,-1.57
3950,47.69,11.56,65.5,0.25,0.7,-1.68
3960,49.94,-11.44,53.81,0.17,0.39,-1.17
3970,40.75,-31.5,42.88,0.09,-0.18,-0.32
3980,28.69,-43.19,38,0.14,-1.09,1.71
3990,23.94,-42.5,37.19,0.04,-1.55,2.5
4000,28.19,-33,41.38,0.04,-1.75,3.09
4010,37.63,-18.06,50.31,0.19,-1.69,3.55
4020,47.69,2,58.94,0.75,-1.18,3.42
4030,55.69,18.94,64.94,0.73,-1.28,3.08
4040,55.69,34.06,70.87,0.68,-1.46,2.81
4050,45.88,47.06,83.31,0.28,-1.23,2.92
4060,30.5,58.63,104.31,0.44,-0.43,3.26
4070,18.69,73,128.56,1.12,0.82,3.38
4080,22.06,88.19,143.06,1.49,2.12,3.32
4090,40.13,102.69,139.25,2.45,3.66,2.03
4100,61.06,123.62,123.56,1.9,3.98,1
4110,75.75,147.69,107.06,1.14,4.13,-0.9
4120,82.62,162.94,99.12,1.19,4.71,-3.63
4130,80.5,148.62,91.5,0.94,5.73,-9.14
4140,66.62,102.56,82.75,0.95,6.57,-10.1
4150,39.5,36.81,78.75,1.41,7.92,-9.52
4160,13.69,-32.5,67.12,2.15,9.08,-7.86
4170,-1.62,-92.31,37.38,2.8,9.02,-3.18
4180,-16,-128.94,-4.62,2.6,7.75,-1
4190,-36.88,-135.5,-41.75,2.09,6.3,1.22
4200,-51.88,-116.19,-63.69,1.11,4.3,3.83
4210,-44.63,-78.75,-69.62,1.19,3.88,3.09
4220,-23,-43.06,-67,1.56,3.68,1.78
4230,-5.56,-28.19,-65.62,1.59,3.48,0.7
4240,-3,-29,-67.06,1.43,2.78,0.31
4250,-9.31,-34.75,-66.56,1.53,2.72,0.64
4260,-13.5,-38.31,-63.25,1.64,2.89,0.85
4270,-17.37,-34.88,-61.38,1.6,2.97,0.91
4280,-25.25,-24.31,-62,1.44,2.7,-0.17
4290,-36.06,-16.12,-64.44,1.4,2.43,-0.41
4300,-40.44,-16.31,-70.25,1.32,2.03,-0.37
4310,-34.19,-24.81,-74.69,1.3,1.54,-0.33
4320,-23.5,-34.88,-76.37,1.37,1.33,-0.38
4330,-21.12,-41.06,-77.5,1.31,1.12,-0.34
4340,-26.87,-43.75,-77.5,1.19,0.87,-0.12
4350,-34.5,-44.31,-74.81,0.83,-0.25,0.02
4360,-46.69,-45.88,-64.69,0.92,-0.1,0.76
4370,-61.25,-46.81,-46.75,1.2,0.51,1.54
4380,-68.62,-44.44,-31,1.84,1.52,2.32
4390,-64.5,-39.06,-27.62,3,3.22,3.76
4400,-47.75,-30.44,-39.94,3.38,3.49,4.11
4410,-27,-14.06,-66.56,3.44,2.95,3.87
4420,-10.94,7.31,-99.69,3.48,1.56,2.73
4430,-10.13,22.56,-127,2.28,-2.53,0.97
4440,-24.69,32.44,-139.12,1.14,-4.34,0.4
4450,-47.56,43.44,-132.75,0.4,-5.51,0.23
4460,-69.5,55,-103.37,0.09,-5.29,-0.45
4470,-77.44,64.75,-66.5,0.42,-3.82,-1.64
4480,-78.25,68.44,-37.81,1.03,-2.3,-2.8
4490,-75.19,62.13,-30.31,1.38,-1.59,-3.61
4500,-70.19,48,-41.75,1.02,-2.69,-3.82
4510,-63.19,29,-57.25,0.6,-3.67,-3.26
4520,-53.88,10.5,-64.31,0.37,-4.48,-2.62
4530,-46.25,-3.19,-61,0.25,-4.96,-1.91
4540,-43.44,-10,-49.88,0.43,-4.81,-0.45
4550,-44.13,-8.5,-35.5,0.6,-4.39,-0.31
4560,-45.5,-2.31,-22.12,0.95,-3.82,-0.4
4570,-47.38,2.06,-11.31,1.44,-2.91,-0.39
4580,-45.13,0.5,-5.94,2.65,-1.2,0.17
4590,-34.31,-2.25,-10,3.23,-0.82,0.35
4600,-19.44,-2.87,-20.75,3.74,-0.89,0.47
4610,-4.06,-1.31,-34.19,4.43,-2.24,-0.24
4620,10.94,-4.69,-43.81,4.35,-3.13,-0.11
4630,16.31,-17.37,-44.63,4.02,-3.8,0.54
4640,13.56,-34.63,-34,3.72,-3.9,1.6
4650,14.25,-45.5,-14.63,3.7,-2.5,3.41
4660,22.19,-38.94,8.94,3.88,-1.14,3.26
4670,31.25,-16.75,26.44,4.42,0.09,2.53
4680,34.63,2.75,31.81,4.5,0.93,1.81
4690,31.44,14.94,28.75,4.38,1.62,1.23
4700,25.81,21.19,17.81,4.01,0.97,1.03
4710,25.81,21.19,17.81,3.19,-0.33,1.1
4720,16.69,25.31,2.12,0.55,-2.5,0.58
4730,-2.94,58.13,-7.12,-0.03,-2.55,-0.77
4740,-8.5,89.94,11.19,-0.01,-1.92,-3.19
4750,-16,93.44,36.31,-0.06,-0.86,-4.22
4760,-16,93.44,36.31,-1.15,-0.25,-1.73
4770,-33.13,28.19,48.06,-1.56,0.1,0.14
4780,-25.69,13,47.13,-1.61,0.1,1.02
4790,-12.25,23.56,38.63,-1.84,-0.15,1.33
4800,0.06,42.88,30.19,-3.1,-0.7,0.31
4810,0.06,42.88,30.19,-3.24,-0.35,-0.8
4820,-6.75,101.69,33.25,-3.62,0.42,-2.44
4830,-22.31,110.75,42.81,-3.47,1.21,-4.05
4840,-25.37,82.25,34.19,-3.98,2.75,-4.82
4850,-20.62,45.13,19.5,-4.52,3.17,-4.22
4860,-20.62,45.13,19.5,-4.76,3.1,-3.17
4870,-19.25,16.12,-0.06,-4.77,1.31,-0.12
4880,-14.5,-10.06,-36.63,-5.46,-0.16,1.42
4890,-4.94,-0.06,-35.81,-5.35,-1.07,2.34
4900,8.63,18.25,-28.56,-5.11,-1.3,2.59
4910,8.63,18.25,-28.56,-4.98,-1.81,-0.09
4920,12.25,37.63,-25.19,-5.09,-2.38,-1.33
4930,-13,51.13,-16.37,-5.2,-2.77,-2.22
4940,-8.25,31.06,-5.5,-5.04,-2.95,-2.79
4950,1.56,2.44,6.37,-4.64,-2.79,-3.14
4960,1.56,2.44,6.37,-4.12,-2.52,-2.66
4970,6.19,-23.12,14.75,-3.9,-2.44,-1.98
4980,10.56,-50.44,10.75,-3.3,-3.5,-0.84
4990,9.69,-51,10,-3.35,-4.33,-0.78
5000,1.87,-43.56,17.19,-3.4,-5.22,-1.23
5010,1.87,-43.56,17.19,-3.4,-5.22,-1.23
5020,-9.5,-39.19,33.81,-3.13,-5.69,-1.7
5030,-13,-58.94,70.44,-1.4,-4.82,-1.58
5040,-12.06,-69.56,80.44,-0.94,-4.11,-0.77
5050,-10.31,-69.75,83.31,-0.66,-3.54,0.08
5060,-10.31,-69.75,83.31,-0.66,-3.54,0.08
5070,-8.81,-62.06,80,0.05,-2.55,0.79
5080,-18.5,-29.31,63.44,0.45,-2,-0.07
5090,-11.56,-28.25,50.13,0.59,-2.37,-0.5
5100,10.63,-38.31,42.06,0.43,-3.34,-0.33
5110,10.63,-38.31,42.06,0.43,-3.34,-0.33
5120,35.44,-50.06,42.38,0.32,-3.87,-0.12
5130,48.19,-54.38,68.56,0.86,-2.89,0.23
5140,39.75,-51.38,81.62,1.36,-2.21,0.44
5150,32.19,-47.63,91.06,1.53,-1.75,0.7
5160,32.19,-47.63,91.06,1.53,-1.75,0.7
5170,24.75,-39.06,99.44,1.5,-1.21,0.92
5180,18.81,-25.56,105.19,2.35,1.66,1.12
5190,24.06,-13.31,103.62,2.61,2.61,0.77
5200,45.25,-5.69,93.44,2.83,3.24,0
5210,68.37,-4.94,73.5,2.83,3.24,0
5220,78.06,-12.5,49.56,2.53,3.39,-1.27
5230,73.19,-25.75,27,1.69,1.68,-0.82
5240,61.5,-38.38,14.63,1.22,0.92,0.54
5250,55.75,-47.81,18,1.2,1.37,0.91
5260,57.75,-52.38,30.25,1.2,1.37,0.91
5270,61.44,-52.88,44.44,1.34,2.36,1.17
5280,67.06,-52.5,55.75,2.48,6.58,1.5
5290,71.5,-48.88,52.81,2.36,6.8,1.34
5300,65.94,-39.94,31.56,1.97,6.41,1.18
5310,46.19,-26.62,3.94,1.97,6.41,1.18
5320,21.37,-14.19,-16.44,1.12,5.42,1.1
5330,6.62,-6.62,-17.87,-0.69,5.27,0.34
5340,4.87,-7.37,-0.44,-0.06,7.23,0.45
5350,12.81,-17.5,22,0.91,9.5,0.75
5360,24.19,-30.94,33.63,0.91,9.5,0.75
5370,30.44,-40.94,17,3.59,13.09,1.6
5380,21.62,-41.31,-32.06,4,11.65,3.13
5390,-2.81,-24.69,-97.06,1.95,5.23,3.01
5400,-31,12.56,-150.5,1.04,2.76,2.27
5410,-51.31,50.88,-170.56,1.04,2.76,2.27
5420,-59.38,79.62,-155.12,0.29,1.35,1.22
5430,-62.5,94.19,-118.19,1.52,3.82,-1.5
5440,-62.25,91.25,-81.31,2.45,5.01,-1.95
5450,-53.5,71.31,-67.19,2.81,5.23,-1.94
5460,-47.88,44.63,-79.62,2.81,5.23,-1.94
5470,-53.75,26.56,-104.19,2.72,4.64,-1
5480,-57.13,25.31,-127.94,1.56,0.14,-0.18
5490,-54.19,33.38,-146.75,0.95,-1.76,-0.64
5500,-55.81,40.69,-153.37,-0.14,-4.84,-1.2
5510,-69.06,47.06,-143.62,-0.14,-4.84,-1.2
5520,-81.06,46.63,-115.75,-0.48,-5.4,-0.96
5530,-71.81,41.69,-77.37,-0.2,-4.71,-1.88
5540,-56.31,36,-37.13,0.93,-2.08,-3.04
5550,-55.81,32.25,-10.56,1.12,-1.37,-3.23
5560,-70,31.56,-6.31,1.12,-1.37,-3.23
5570,-81.37,30.25,-17.81,1.31,-1.2,-3.49
5580,-81.75,21.19,-39.38,0.5,-4.71,-3.33
5590,-76.44,1.75,-59.38,0.1,-5.89,-2.3
5600,-66.31,-20.69,-67.06,-0.03,-6.52,-1.42
5610,-51.63,-36.13,-61.94,-0.03,-6.52,-1.42
5620,-38.81,-40.88,-47.88,-0.23,-6.73,-0.66
5630,-33.19,-33.75,-28.5,-0.06,-6.18,0.13
5640,-32.69,-20.37,-9.63,0.01,-5.63,-0.16
5650,-33.25,-7.44,4.75,0.31,-4.28,-0.42
5660,-33.69,1.19,14.38,0.31,-4.28,-0.42
5670,-29.25,3.62,19.81,0.59,-3.4,-0.29
5680,-14.56,1.25,14.13,0.48,-3.15,-0.39
5690,-1.44,-0.31,1.19,0.63,-3.22,-0.58
5700,6.37,-1.31,-14.06,0.09,-4.56,-0.24
5710,15.63,0.37,-25,-0.41,-5.33,-0.44
5720,25.62,3.81,-24.62,-0.83,-5.99,-0.98
5730,28.06,7.06,-12.13,-1.29,-6.31,-1.61
5740,22.56,6.75,8.88,-1.98,-6.26,-2.15
5750,19,2,37.25,-2.18,-5.31,-2.29
5760,20.37,-5,67.69,-1.81,-3.57,-2.42
5770,21.94,-13.31,86.25,-0.69,-0.07,-2.2
5780,19.12,-20.75,84.37,-0.11,0.84,-1.68
5790,16.12,-27.44,63,-0.04,0.91,-0.9
5800,20.44,-30.69,32.25,-0.1,0.1,-0.22
5810,29.81,-28,6.12,-1.29,-2.8,0.53
5820,39.5,-18,-5.94,-1.73,-4.11,0.22
5830,49.06,-7.5,-2.44,-2.19,-5.06,-0.4
5840,55.06,-2.06,14.81,-2.54,-5.58,-1.36
5850,53.75,-5.25,42.06,-2.58,-5.2,-2.66
5860,48.44,-17.56,74.44,-2.15,-4.08,-2.46
5870,46.63,-34.56,103.19,-1.58,-2.57,-1.65
5880,54.69,-49.5,120.81,-0.82,-0.85,-0.3
5890,80.75,-56.31,123.12,0.5,2.9,2.05
5900,125.56,-53.38,102.44,0.89,3.75,2.17
5910,176.12,-42.44,64.69,0.98,3.84,1.49
5920,210.94,-34.38,23.62,0.34,1.41,-1.24
5930,205.56,-35.31,-7.94,-0.09,-0.43,-1.94
5940,159.37,-38.63,-17.12,-0.58,-1.97,-1.58
5950,107,-41.13,-1.75,-1.15,-3.03,-0.78
5960,78.62,-43.88,35.69,-0.58,-2.16,0.42
5970,73,-49.63,79.44,0.25,-0.48,0.74
5980,72.87,-56.25,108.44,1.09,1.05,1.19
5990,73.56,-61.5,119.31,1.96,2.53,1.95
6000,83.31,-52.94,110.94,2.74,4.72,3.13
6010,99.5,-35.88,84.56,3.2,4.89,2.94
6020,107.87,-10.88,49.63,2.68,4.46,2.4
6030,97.75,17.69,18.06,1.91,3.27,1.28
6040,73.25,40.88,5.06,1.13,1.53,-0.37
6050,52,51.56,7.69,0.74,1.12,-0.97
6060,38.56,49.38,23.62,0.81,1.52,-1.5
6070,31.37,38.06,44.81,2.27,4.35,-1.33
6080,35.25,20.06,52.38,2.78,5.51,-0.93
6090,46.69,-0.81,37.06,2.93,5.8,-0.46
6100,49.38,-13.88,7.12,2.66,5.14,0.14
6110,36.63,-10.63,-19.69,1.36,2.58,1.07
6120,16.81,8.38,-31.94,0.73,1.47,0.9
6130,0.75,29.75,-27.06,0.31,0.79,0.31
6140,-9.44,45.5,-9.5,0.01,0.71,-0.5
6150,-17.37,52.5,14.56,0.26,2.8,-1.6
6160,-16.31,45.44,35.63,0.89,4.43,-1.63
6170,-0.81,28.62,41.81,1.42,5.72,-1.79
6180,13.31,12.81,29.81,1.81,6.62,-2.02
6190,9.69,3.25,7.06,1.68,6.18,-1.98
6200,-10.69,2.25,-17.94,1.3,5.19,-1.77
6210,-33.63,4.31,-34.88,1,4.4,-1.51
6220,-46.88,1.62,-41.63,0.81,3.22,-1.13
6230,-52.94,-5.5,-42.63,0.8,2.97,-0.6
6240,-56.44,-13.25,-37.75,0.95,3.22,0.13
6250,-54.75,-15.63,-32.63,1.19,3.7,0.55
6260,-49.38,-11,-34.81,1.58,4.14,0.23
6270,-47.88,-4.37,-43.94,1.64,3.86,-0.09
6280,-52.88,0.19,-59.25,1.54,3.18,-0.23
6290,-58.94,1.12,-74.81,1.37,2.39,-0.11
6300,-59.5,-1.06,-85.62,0.58,0.22,-0.15
6310,-60.63,-4.56,-88.69,0.2,-0.67,0.02
6320,-66,-7.06,-82.06,-0.24,-1.32,0.44
6330,-70.06,-5.12,-67.75,-0.83,-1.77,1.23
6340,-66.75,1.5,-47.56,-0.58,-1.18,1.18
6350,-56,10.75,-27.06,-0.18,-0.33,0.72
6360,-43.5,19.87,-17.12,0.11,0.37,0.01
6370,-37.13,26.94,-21,0.12,0.15,-2.05
6380,-42.94,29,-33.13,-0.19,-0.71,-2.65
6390,-56.25,23.75,-43.69,-0.34,-1.6,-2.89
6400,-68.75,11.94,-44.56,-0.64,-2.31,-2.77
6410,-74.69,-3.37,-35.63,-0.35,-2.43,-1.56
6420,-68.5,-20.81,-20.81,0.1,-1.86,-0.67
6430,-53.44,-34.75,-10.69,0.41,-1.42,0.01
6440,-42.63,-38.19,-9.81,1.05,-0.98,0.98
6450,-40.06,-33.13,-14.81,1.17,-1.14,1.29
6460,-40.25,-22.37,-24.56,1.07,-1.68,1.23
6470,-42,-9.19,-33.63,0.75,-2.41,0.95
6480,-47.63,3.5,-35.56,0.42,-3.25,0.3
6490,-52.94,12.56,-27.06,0.55,-3.02,-0.06
6500,-52.06,16.87,-15,0.77,-2.61,-0.55
6510,-46.81,15.81,-6.44,0.95,-2.14,-0.89
6520,-42.75,9.06,-3.56,1.48,-1.52,-1
6530,-41.75,-0.44,-6.06,1.54,-1.58,-0.51
6540,-42.06,-8.63,-11.94,1.69,-1.89,-0.12
6550,-40.5,-12.31,-17.5,1.77,-2.38,0.18
6560,-39.25,-13.88,-19.75,1.83,-3.48,0.73
6570,-41.06,-14.13,-15.38,2.01,-3.52,1.16
6580,-42.56,-10.63,-3.69,2.26,-3.34,1.43
6590,-37.25,-4.62,11.25,2.91,-1.69,1.43
6600,-27.44,2.56,23.81,3.28,-0.69,1.03
6610,-20.56,10.44,29.25,3.63,0.18,0.71
6620,-18.06,16.12,23.62,3.93,0.71,0.69
6630,-12.56,18.69,9.31,4.11,1.03,0.24
6640,-0.94,21.31,-8.94,4.2,0.54,-0.14
6650,9.25,18.19,-30,3.98,-0.46,-0.14
6660,10.94,11.44,-48.19,3.65,-1.52,0.3
6670,9,4.87,-56.13,2.8,-3.18,1.38
6680,6.44,3.19,-52.19,2.53,-3.06,1.72
6690,2.56,14.06,-34.63,2.31,-2.08,1.59
6700,3.31,32.81,-15.69,1.61,-0.49,-0.14
6710,-1,51.44,-4.25,1.92,0.74,-0.41
6720,-17.87,71.25,-14.63,2.08,1.35,-0.78
6730,-17.87,71.25,-14.63,1.51,0.36,-1.85
6740,-19.87,60.13,-42.06,-0.05,-3.14,-1.61
6750,-26.06,40.19,-54.13,-1.03,-4.1,-0.76
6760,-26.37,34.44,-3.37,-1.04,-4.29,-0.36
6770,-26.62,48,35.13,-1.35,-3.64,-0.44
6780,-34.38,59.63,66,-1.01,-0.84,-2
6790,-43.06,64.25,83.06,-0.44,1.07,-2.3
6800,-35.63,56.06,78.5,0.34,2.96,-2.33
6810,-14.69,35.69,49.75,0.77,4.11,-2.18
6820,4.31,16.75,11.81,0.61,3.18,-0.88
6830,10.19,6.69,-15.94,-0.03,1.45,-0.31
6840,2.44,5.44,-20.87,-0.86,-0.4,0.49
6850,-5.62,11.81,-3.44,-1.48,-1.35,2.32
6860,-9.06,31.25,19.12,-1.37,-0.63,2.78
6870,-11.38,57.63,32.69,-1.36,0.37,2.71
6880,-17.06,83.56,34.81,-1.62,1.22,2.24
6890,-14.88,104.62,30.19,-2.1,3.14,0.36
6900,1.31,105.87,14.81,-1.77,3.78,-1
6910,14.31,88.37,-15.38,-2.07,3.42,-1.91
6920,14.81,67.31,-43.06,-2.72,2.05,-1.75
6930,19.31,55.88,-56.25,-3.62,-0.56,0.61
6940,33.88,57.81,-57.94,-4.09,-1.68,0.63
6950,37,65.69,-49.13,-4.31,-2.6,-0.26
6960,22.62,71.81,-30.87,-4.25,-3.29,-2
6970,8.81,66.87,-8.88,-4.81,-2.81,-2.2
6980,5.87,54.56,10.19,-4.28,-1.83,-2.35
6990,10.44,39.5,16.12,-3.73,-0.82,-2.56
7000,15.44,20.81,9.31,-3.45,-0.31,-2.72
7010,14.63,4.44,-1.37,-3,-0.56,-2.62
7020,14.31,-11.13,-11.94,-2.91,-0.81,-1.58
7030,23.69,-18.69,-20.5,-3.47,-1.67,-0.85
7040,25.37,-15.56,-16.06,-3.19,-2.18,-1.01
7050,22.75,-12,-13.44,-3.41,-2.27,-1.25
7060,20.81,-11.75,-14,-2.69,-2.64,-1.98
7070,16.19,-21.37,-12.75,-2.88,-3.23,-2.44
7080,14.56,-33.06,-5.37,-3.03,-3.92,-1.84
7090,18.75,-43.38,7.12,-2.95,-3.74,-1.66
7100,18.75,-48.06,17.62,-2.77,-3.23,-1.58
7110,12.13,-49.38,22.44,-2.61,-2.59,-2.15
7120,2.69,-53.56,23.56,-2.45,-2.56,-2.4
7130,-5.31,-63.63,24.87,-2.31,-2.62,-2.15
7140,-9.63,-74.19,26.62,-2.08,-2.66,-1.57
7150,-5.31,-79.12,28.12,-1.6,-2.88,-0.06
7160,1.5,-79.25,32.75,-1.69,-2.91,-0.2
7170,-3.56,-73.56,40.31,-1.25,-2.49,-0.27
7180,-5.69,-67.94,43.56,-0.95,-2,-0.21
7190,-1.69,-64.5,42.94,-0.51,-1.64,-1.24
7200,-3.25,-65.56,40.81,-0.47,-1.94,-1.81
7210,-9.94,-71.12,42.31,-0.13,-2.12,-1.85
7220,-9.94,-71.12,42.31,0.55,-2.17,-0.77
7230,-9.69,-80.81,45.44,0.9,-2.22,-0.13
7240,13.44,-97.81,51.56,1.17,-2.14,0.39
7250,20.62,-97.06,54.19,1.38,-1.97,0.84
7260,22.5,-89.69,55.13,1.74,-2.09,1.44
7270,24.44,-78.62,56.69,1.67,-2.42,1.45
7280,26.94,-70.56,63.81,1.61,-2.67,1.28
7290,26.19,-63.94,76.69,1.66,-2.54,1.14
7300,27.31,-58.19,89.37,2.42,-0.81,1.45
7310,41.13,-56.88,94.37,2.92,0.25,1.57
7320,41.13,-56.88,94.37,3.08,1.22,1.65
7330,68.37,-59,87.19,3.13,1.48,1.53
7340,110.44,-65.37,54.81,2.36,0.42,1.32
7350,102.5,-66.81,61,2.04,0.61,1.74
7360,84.87,-55.81,80.62,2.07,1.79,2.15
7370,84.87,-55.81,80.62,2.62,5.52,1.86
7380,69.81,-31.06,95,3.13,7,0.97
7390,45.31,25.56,70.25,3.5,7.92,-0.01
7400,36.69,33.75,33.75,3.43,8.13,-0.78
7410,32.88,25.12,-5.69,3,7.08,-1.53
7420,32.88,25.12,-5.69,2.37,5.91,-1.13
7430,39.94,3.56,-39.06,1.8,4.75,-0.55
7440,44.5,-18.69,-58.81,1.45,3.98,-0.19
7450,26.94,-9.69,-49.81,1.3,3.58,0.09
7460,11.06,1.06,-37.31,1.5,4.08,-0.23
7470,11.06,1.06,-37.31,1.5,4.08,-0.23
7480,1.94,6.62,-26.75,2.35,6.57,-1.42
7490,-11.88,5.5,-36.25,2.45,6.6,-1.23
7500,-14.06,-1.44,-54.06,2.25,5.92,-0.5
7510,-11.88,-4.5,-70.19,1.84,4.91,0.16
7520,-11.88,-4.5,-70.19,1.84,4.91,0.16
7530,-10.75,-0.44,-77.12,1.18,3.3,0.38
7540,-28.31,10.94,-71.87,0.55,2.23,-0.13
7550,-49.56,17.06,-64.62,0.11,1.68,-0.39
7560,-66.69,21.31,-53.63,-0.23,1.18,-1.05
7570,-66.69,21.31,-53.63,-0.23,1.18,-1.05
7580,-75.56,18.12,-40.25,-0.1,1.48,-1.1
7590,-56.31,-7.69,-34.81,0.57,2.57,1
7600,-45,-3.25,-41.31,1.05,2.82,0.96
7610,-47.25,12.13,-51.94,1.41,2.38,-0.18
7620,-47.25,12.13,-51.94,1.41,2.38,-0.18
7630,-58.81,22.37,-66.19,1.39,1.29,-1.24
7640,-111.06,22.62,-69.94,-0.33,-2.95,-1.96
7650,-124.81,6.69,-49,-0.32,-3.05,-0.28
7660,-98.69,-13.81,-25.5,0.04,-2.34,1.4
7670,-98.69,-13.81,-25.5,0.04,-2.34,1.4
7680,-57.38,-28.06,-11.63,1,-0.36,2.64
7690,-38.5,6.31,-17.69,1,0.65,3.12
7700,-48.13,52.63,-29.56,1.17,0.61,1.52
7710,-63.25,87.5,-42.88,0.84,-0.54,-1.8
7720,-63.25,87.5,-42.88,0.84,-0.54,-1.8
7730,-74.81,94.19,-54.75,0.75,-1.62,-2.5
7740,-71.94,74.25,-62.19,-0.21,-3.87,-2.78
7750,-61.31,49.5,-61.75,-0.68,-5.35,-1.46
7760,-53.63,25.69,-53.5,-0.94,-5.54,-0.42
7770,-51.63,13.19,-40.25,-0.94,-5.54,-0.42
7780,-47.75,17.12,-20.5,-0.92,-5.1,0.21
7790,-38.31,30.56,-1.69,-0.23,-3.07,-2.74
7800,-35.25,40.06,3.87,-0.37,-3.31,-3.06
7810,-43.44,37.38,0.37,-0.5,-3.63,-2.84
7820,-47.13,22.5,-1.81,-0.5,-3.63,-2.84
7830,-38.44,1.19,0.25,-0.49,-3.79,-1.34
7840,-25.87,-16.81,5.31,-0.2,-3.2,0.86
7850,-18.87,-21.87,8.31,-0.2,-2.9,1.5
7860,-14.5,-13.38,8.44,0.13,-2.09,0.74
7870,-6.75,3.56,5.94,0.13,-2.09,0.74
7880,2.62,19.12,-2.56,-0.08,-2.51,-0.75
7890,3.44,23.31,-9.88,-0.67,-4.07,-2.34
7900,-1.69,17.31,-11.88,-0.85,-4.52,-2.12
7910,-2.69,4.56,-9.56,-0.82,-4.71,-1.72
7920,0,-9.19,-2.62,-0.82,-4.71,-1.72
7930,4.87,-20.87,8.44,-0.55,-4.39,-0.85
7940,14.19,-27.81,17.69,0.3,-2.45,1.25
7950,26.75,-25.75,20.5,0.36,-2.48,0.46
7960,35.69,-12.31,17,0.02,-3.33,-0.91
7970,30.87,6.44,9.25,0.02,-3.33,-0.91
7980,16.94,16.19,8.06,-0.19,-4.29,-1.82
7990,15.81,12.06,15.19,0.56,-3.22,-0.87
8000,32.25,-2.44,24.81,1.59,-1.47,2.06
8010,55.19,-17.12,26.44,2.03,-1.25,2.32
8020,82.75,-20.37,16,2.03,-1.25,2.32
8030,103.87,-9.13,-2.31,2.08,-1.55,2.2
8040,107.5,20.69,-23,0.25,-5.49,-2.16
8050,94.44,58.25,-36.13,-0.69,-6.56,-4.11
8060,75.25,87.75,-36.56,-1.36,-6.91,-5.27
8070,60.88,86.19,-20.31,-1.36,-6.91,-5.27
8080,65.5,53,11.69,-1.46,-6.29,-5.5
8090,87.5,-0.06,42.56,-1,-2.89,-0.65
8100,109.75,-41.25,63.94,-0.72,-1.36,0.65
8110,114.12,-51.06,80.37,-0.3,0.19,0.81
8120,107.81,-31.94,90.31,-0.3,0.19,0.81
8130,98.75,-2.56,89.44,-0.06,1.79,-1.77
8140,84.94,16.12,78.31,-1.17,0.46,-3.98
8150,72.62,14,65.31,-1.54,0.57,-3.64
8160,64.56,-3.19,65.94,-1.5,1.21,-2.3
8170,66,-35.88,84.19,-1.5,1.21,-2.3
8180,80.62,-68.5,101.87,-1.21,2.1,-1.03
8190,85.56,-87.06,118.12,0.26,6.25,2.18
8200,80,-90.31,130.25,0.75,7.51,2.53
8210,72.31,-73.94,129.56,0.81,8.13,2.23
8220,63.19,-47.06,113.25,0.81,8.13,2.23
8230,51.31,-16.06,82.94,0.59,7.89,1.35
8240,38.25,6.56,49.75,-1.56,3.54,-1.6
8250,20.87,14.88,26.87,-1.56,3.54,-1.6
8260,4.12,8.44,19.12,-2.09,2.14,-1.73
8270,-1.69,-6.75,25.81,-2.36,1.17,-1.63
8280,-0.19,-24.62,42.63,-2.14,1.66,-0.33
8290,3.5,-33.63,60.56,-1.69,2.48,-0.28
8300,2.37,-32.19,71.25,-1.37,3.13,-0.87
8310,-7.56,-29.75,72.87,-0.48,4.31,-1.12
8320,-18.12,-33.88,67,-0.1,4.69,-0.54
8330,-18,-43.31,53.31,0.13,4.59,0.04
8340,-12.88,-50.69,34.56,-0.01,3.9,0.48
8350,-14.13,-50.13,19.5,-0.23,2.55,1.09
8360,-18.12,-44.31,13.44,-0.2,2.54,1.14
8370,-13.19,-38.94,14.25,-0.08,2.71,0.59
8380,-8.06,-37.5,16.44,-0.11,3.05,0.08
8390,-12.75,-37.69,20.12,0.4,5.24,0.29
8400,-10.31,-40.44,24.19,1.09,6.77,0.16
8410,2.94,-49,19.5,1.73,7.83,0
8420,8.63,-59.69,1.19,1.86,7.69,0.47
8430,-2.87,-62,-23.69,1.76,6.97,1.02
8440,-25.69,-55.38,-42.31,1.9,6.35,1.66
8450,-42.94,-44.75,-48,2.29,6.32,2.08
8460,-46.44,-32.31,-44.5,4.29,8.22,1.65
8470,-41.88,-20.31,-46.63,5.19,8.62,1.42
8480,-40.31,-13.56,-67.56,5.68,8.25,1.44
8490,-44.44,-5.62,-102.5,5.55,6.94,1.61
8500,-49.38,9.5,-138.44,4.84,2.95,0.43
8510,-52.56,26.75,-164.44,4.05,0.64,-0.59
8520,-59.13,40.06,-178.12,3.03,-1.52,-1.59
8530,-74.75,45.56,-171.19,2.27,-2.98,-2.27
8540,-96.37,42.88,-144.62,1.53,-3.95,-2.22
8550,-102.25,27.37,-107.94,1.78,-3.6,-2.3
8560,-93.06,3.62,-74.31,2.06,-3.06,-1.66
8570,-93.62,-16.06,-52.94,2.31,-2,0.87
8580,-99.75,-16.62,-42.25,2.46,-1.67,1.23
8590,-94.69,-0.69,-40.38,2.26,-2.07,0.54
8600,-84.62,17.06,-46.19,1.93,-2.85,-0.61
8610,-85.87,26.81,-52.25,0.97,-4.54,-0.95
8620,-92.25,29.87,-51.88,0.54,-4.95,-0.86
8630,-85.69,28.87,-42.94,0.3,-5.29,-1.23
8640,-70.81,24.75,-26.81,0.22,-5.25,-1.73
8650,-62.5,20.31,-7.12,0.71,-3.86,-1.72
8660,-61.06,15.38,9.44,0.86,-3.05,-1.6
8670,-58.5,14.38,17.06,1.09,-2.31,-1.65
8680,-54.56,15.44,18.37,1.63,-1.2,-2.11
8690,-51.19,15.25,13.06,1.7,-1.32,-2.3
8700,-50.75,12.69,2.37,1.85,-1.86,-2.24
8710,-50.94,6.69,-7,2.09,-2.54,-1.72
8720,-47.44,-0.69,-11.69,1.98,-3.69,-0.5
8730,-34.44,0.62,4.06,2.35,-3.57,-0.31
8740,-34.44,0.62,4.06,3.04,-2.77,-0.25
8750,-24.12,3.81,18.19,3.77,-1.73,-0.34
8760,-23.37,-2,8.94,4.46,-0.99,0.22
8770,-26.19,-1.37,-4.56,4.64,-1.31,1.1
8780,-20.19,16,-14.56,4.32,-1.67,2.1
8790,-0.06,39.19,-21.31,4.46,-1.66,1.68
8800,11.56,58.75,-28.25,4.17,-1.86,-1.9
8810,11.06,60.75,-34.56,4.18,-1.85,-3.62
8820,18.87,40.63,-45.38,4.43,-1.86,-4.67
8830,35.38,4.69,-56.31,3.28,-3.67,-5.28
8840,41.44,-37.06,-54.88,3.55,-3.93,-3.52
8850,40.63,-72.87,-53,3.32,-4.28,-0.97
8860,33.06,-94.37,-47.44,1.97,-5.16,0.71
8870,20.62,-67.87,-17.56,0.02,-5.67,4.34
8880,8.5,-28.19,23.31,-0.27,-4.67,5.16
8890,5.19,17,60.44,-0.03,-2.78,5.42
8900,13.69,60.69,81.44,0.2,-0.32,4.95
8910,33.44,91.19,81.12,1.12,4.35,3.63
8920,58.31,109.12,56.44,1.46,5.79,2.19
8930,59.5,115,10.5,1.47,5.97,0.8
8940,40.75,112.75,-36,0.36,4.52,-0.03
8950,15.5,112.19,-58.88,-2.65,-0.8,-0.43
8960,-5.31,112.31,-52.38,-3.71,-2.74,-0.14
8970,-7.25,99.31,-21.31,-4.43,-4.01,-0.26
8980,-2.69,85.87,22.56,-4.74,-2.97,-1.88
8990,-10.5,71,61.13,-4.34,-0.93,-2.09
9000,-22.56,56.13,79.44,-4.07,0.98,-1.68
9010,-28.37,43.69,75.06,-4.01,2.32,-1.25
9020,-29,32.63,56.13,-4.13,3.25,0.77
9030,-20.44,29.94,32.56,-4.43,2.98,1.9
9040,-6.62,41,11.19,-4.71,2.48,2.2
9050,0.5,60.69,-6.81,-5.06,1.88,1.4
9060,-0.69,78.19,-23.12,-5.99,0.1,-1.69
9070,-8.5,86.87,-36.13,-5.92,-1.28,-3.72
9080,-18.37,76.25,-40.06,-6.27,-2.83,-4.72
9090,-11.38,50,-33.44,-7.11,-4.73,-4.9
9100,9.44,20.62,-14.69,-6.17,-4.73,-5.29
9110,23.75,-11.25,9.81,-5.47,-3.53,-4.39
9120,30.06,-27.87,20.56,-4.44,-2.29,-3.4
9130,27.5,-31.56,12.19,-3.07,-2.61,-3.26
9140,13.75,-32.13,-2.19,-3.08,-4.42,-3.4
9150,-0.13,-37.94,-0.88,-3.21,-6.22,-3.23
9160,-3.56,-50.69,20.69,-3.25,-7.4,-2.73
9170,0.5,-59.75,57.06,-2.89,-6.98,-1.46
9180,6.75,-61.19,96.56,-2.05,-5.28,-1.39
9190,12,-62.81,120.25,-0.57,-3.65,-1.6
9200,9.69,-69.69,127.44,0.4,-2.15,-1.65
9210,-10.31,-74.56,129.25,1.39,-1.55,-0.74
9220,-21.75,-78,122.81,1.85,-1.56,0.63
9230,-4.62,-74.62,110.19,1.45,-2.31,1.29
9240,24.87,-63.69,107.81,0.42,-3.31,-1.14
9250,47.94,-59.25,123.5,0.83,-2.47,-3.18
9260,54,-73.12,140.31,1.3,-1.61,-4.54
9270,42,-99.12,147.69,1.68,-1.01,-4.86
9280,26.87,-126.81,151.19,2.68,0.65,-1.85
9290,31.87,-149.19,150.75,3.3,1.41,0.02
9300,63.5,-173.5,147.12,4.03,2.59,1.66
9310,107.5,-182.19,136.06,4.25,4.03,3.46
9320,141.19,-180.12,111.62,4.77,5.68,3.26
9330,137.56,-174.94,82.37,5.03,5.84,2.86
9340,86.87,-117.25,52.69,3.99,5.97,4.18
9350,48.38,-59.81,25.06,3.42,4.91,5.77
9360,54.88,-7.62,1.31,2.49,3.58,3.43
9370,66.75,23.94,-4.12,1.95,3.01,1.09
9380,57.19,41.81,1.94,1.75,3.14,0.3
9390,43.38,45.06,10.38,1.69,4.61,0.15
9400,44.31,28,18.56,1.94,5.93,-0.41
9410,46,1.31,18.06,2.34,7.21,-1.01
9420,29.37,-17.06,3.75,2.62,8.31,-0.64
9430,5.62,-21.19,-24.81,2.98,8.28,0.94
9440,-15.38,-16.06,-60.06,2.39,6.6,1.35
9450,-35.75,-3.25,-85.56,1.91,4.86,1.6
9460,-45.94,9.31,-93.75,0.77,2.52,1.44
9470,-44.38,19.87,-87.19,0.77,2.45,0.69
9480,-44.5,27.25,-76,0.85,2.83,0.12
9490,-50.88,30.75,-70.94,0.92,3.19,0
9500,-54.31,33.69,-72.5,0.94,3.1,-0.71
9510,-57.38,33,-77.06,0.83,2.63,-1.13
9520,-64.44,29.94,-78.87,0.7,2.24,-1.39
9530,-71.31,24.62,-75.75,0.69,2.19,-1.4
9540,-72.56,15.63,-73.19,1,2.39,-0.72
9550,-67.75,8,-75.37,0.99,2.52,-0.18
9560,-58.13,7.56,-80.81,1.19,2.65,0.27
9570,-46.56,11.69,-88.81,1.25,2.81,0.55
9580,-39,18.69,-100.87,1.7,2.38,0.63
9590,-33.63,27,-118.06,1.51,1.55,0.58
9600,-26.87,38.38,-133.87,0.99,0.47,0.27
9610,-20.5,55.75,-137.44,0.35,-0.85,-2.4
9620,-28.81,75.56,-134.12,-0.01,-1.35,-4.03
9630,-48.56,73.37,-128.06,0.03,-1.87,-4.75
9640,-50.56,43,-118.12,0.03,-2.55,-5.33
9650,-42.63,-2.25,-102.81,0.35,-3.2,-3.06
9660,-43.25,-37.75,-87.19,0.85,-3,-0.94
9670,-46.88,-49.44,-78.44,1.1,-3.01,0.53
9680,-47.5,-39.88,-74.25,1.03,-3.32,1.07
9690,-49.44,-17.19,-68.81,1.07,-4.4,0.47
9700,-56.5,4.37,-62.13,0.9,-4.89,-0.24
9710,-69.81,22.12,-54.06,0.98,-5.18,-0.62
9720,-75.25,27.31,-45,0.77,-5.49,-0.89
9730,-63.38,19.06,-32.81,0.28,-6.08,-2.18
9740,-49.81,4.37,-13.81,0.36,-5.5,-2.27
9750,-42.75,-13.38,3.12,0.8,-4.58,-1.39
9760,-37.88,-23.87,9.25,1.01,-3.57,0.58
9770,-32.63,-24.31,9.13,1.01,-3.35,1.1
9780,-28.56,-15.25,6.94,0.92,-3.28,1.37
9790,-22.56,-0.94,5.75,0.73,-3.25,1.31
9800,-15.38,12.13,6.87,0.28,-2.94,0
9810,-9.94,18.75,10.31,0.31,-2.44,-0.59
9820,-5.44,16.06,12.88,0.45,-1.84,-0.91
9830,-5.44,16.06,12.88,0.53,-1.34,-0.69
9840,-1.12,5,10.63,0.37,-1.24,0.53
9850,12.75,-11.75,-3.19,0.15,-1.54,0.99
9860,14.94,-7.87,-6.25,-0.15,-1.9,1.26
9870,14.13,4.75,-5.31,-0.63,-2.32,0.8
9880,12.88,18.5,-0.31,-0.83,-2.23,0.1
9890,12.13,26.44,6.94,-0.85,-1.79,-0.55
9900,12.56,26.19,13.5,-0.83,-1.25,-1.27
9910,12.5,18.12,16.31,-0.85,-0.84,-2.16
9920,8.13,8.44,16.25,-0.96,-0.91,-2.06
9930,8.13,8.44,16.25,-1.04,-1.02,-1.75
9940,-0.62,-1.37,16.25,-1.03,-1.23,-1.51
9950,-15.19,-9.19,16.06,-1.33,-2.53,-0.94
9960,-19.44,-11.31,18.31,-1.48,-2.94,-0.53
9970,-15.88,-12.13,26.5,-1.36,-2.91,-0.45
9980,-15.88,-12.13,26.5,-1.42,-2.91,-0.64
9990,-7.75,-13.31,35.63,-2.32,-3.5,-1.04
10000,-11.81,-17.62,53.81,-2.76,-3.72,-1.09