timestamp,gyrox,gyroy,gyroz,accx,accy,accz
10,-56.69,-21.69,36.5,-1.44,-3.35,0.01
20,-71.87,-17.87,38.38,-1.54,-3.04,-0.17
30,-68.12,-15.5,51.25,-1.24,-2.08,-0.55
40,-52.81,-15.13,71.5,-1.24,-2.08,-0.55
50,-34.13,-17.56,88.19,-0.82,-0.95,-1.2
60,-23.19,-23.81,92.75,-0.49,0.55,-2.78
70,-28.5,-33,85.75,-0.42,0.33,-2.68
80,-51.38,-42.81,72,-0.77,-0.33,-1.03
90,-78.62,-52.25,58.25,-0.77,-0.33,-1.03
100,-88.5,-62.06,51.38,-0.84,-0.22,-0.29
110,-69.56,-72.06,52.75,-0.54,0.7,-0.1
120,-35.19,-79.5,54.63,-0.22,1.39,-0.52
130,-7.62,-81.12,50.5,-0.29,0.98,-0.8
140,5.44,-79.12,37.31,-0.29,0.98,-0.8
150,6.56,-76.69,20.37,-0.51,0.24,-1.1
160,-3.56,-73.75,8.5,-0.64,-1.41,-1.5
170,-16.44,-73.31,7.12,-0.32,-1.37,-1.13
180,-21.19,-81.12,15,-0.37,-1.29,-0.69
190,-16.19,-95.5,27.12,-0.37,-1.29,-0.69
200,-7.12,-109.62,41.56,-0.1,0.04,0.35
210,0.31,-121.69,56.06,0.82,2,1.61
220,6.25,-131.75,68.81,1.34,3.06,2.27
230,13.31,-130.31,75.69,2.05,4.99,3.4
240,23.69,-126.5,73.87,2.05,4.99,3.4
250,35.75,-113.75,63.63,2.46,5.77,3.37
260,44.13,-90.12,45.56,2.81,6.24,2.5
270,44.63,-60.81,17.37,2.17,4.36,0.93
280,36.25,-31.37,-17.81,1.82,3.32,0.45
290,22.69,-10.75,-47.63,1.82,3.32,0.45
300,9.13,-0.56,-61.81,1.56,2.88,0.44
310,2.87,1,-63.25,1.9,2.82,0.29
320,9.5,-2.87,-61.88,1.9,2.82,0.29
330,17.25,-7.75,-62.5,2.03,2.85,0.24
340,12.5,-7.06,-65.69,2.1,2.75,0.33
350,-2.31,-1.69,-69.37,2.12,2.19,0.54
360,-17.37,6.56,-72.87,2.07,1.85,0.36
370,-28.62,15.06,-75.37,2.06,1.61,0.1
380,-36.81,20.87,-75.44,1.99,1.47,0.05
390,-41.13,24.5,-74.31,2.17,1.22,0.01
400,-37.19,23.81,-72.44,2.24,1.25,0.07
410,-37.19,23.81,-72.44,2.4,1.27,0.14
420,-35.13,24.87,-74.5,2.5,1.19,0.15
430,-43.13,38.44,-87.06,2.2,0.35,-0.03
440,-51.06,49.94,-93.94,1.99,-0.28,-0.42
450,-63.63,62.5,-96.62,1.61,-1.03,-0.81
460,-77.37,75.62,-93,0.63,-2.29,-1.85
470,-84.44,82.19,-83.75,0.48,-2.42,-2.26
480,-76.56,72,-75.25,0.34,-2.38,-2.83
490,-56.5,49.75,-70.31,0.24,-2.32,-3.29
500,-44.81,26.19,-67.87,0.09,-3.06,-4.17
510,-52,7.5,-66.12,0.05,-3.56,-3.87
520,-67.5,-2.62,-63.75,-0.06,-4.16,-3.37
530,-80.37,-5.56,-56.88,-0.3,-4.91,-2.9
540,-87.25,-5.87,-43.25,-0.47,-5.91,-2.27
550,-85.81,-7.56,-23.19,-0.55,-5.97,-1.84
560,-72.75,-11.56,-0.75,-0.31,-5.49,-1.19
570,-48.06,-14.25,15.19,0.13,-4.57,-0.61
580,-26.25,-14.25,21.31,0.81,-3.09,-0.76
590,-23.19,-10.19,21.75,0.98,-2.75,-1.04
600,-32.06,-4.87,20.44,1.2,-2.51,-1.07
610,-34.56,-3.94,19.12,1.41,-2.16,-0.58
620,-28.37,-6.62,19.44,1.52,-2.03,-0.43
630,-21.94,-9.88,21.44,1.74,-1.81,-0.35
640,-18.56,-12,23.12,2.04,-1.43,-0.25
650,-15.25,-12.38,21.5,2.59,-0.72,0.34
660,-10.13,-10.19,17.06,2.82,-0.46,0.65
670,-4.19,-6.19,10,2.99,-0.3,1.12
680,2.62,1.19,1,3.19,-0.27,1.59
690,10.63,11.31,-8.81,3.3,-0.79,2.15
700,16.12,26.56,-15.94,3.15,-1.37,1.88
710,14.19,44.63,-15.81,2.87,-1.83,1.28
720,8.25,59.94,-8.44,2.79,-1.27,-0.11
730,4.75,71.44,-1.25,2.9,-0.49,-0.74
740,5.06,79.87,2.06,3.33,0.44,-1.54
750,8.88,73.69,-6.12,3.58,1.09,-2.22
760,13.75,53.06,-27.25,3.33,0.39,-3.13
770,14.44,25.25,-52.81,2.57,-1.27,-2.64
780,7.94,2.56,-65.06,1.75,-3,-1.5
790,1.5,-5.75,-54.69,0.99,-4.27,-0.41
800,0.88,1.31,-24.44,0.3,-4.75,0.49
810,6.69,14.19,13.56,0.41,-3.72,0.49
820,17.81,28.19,46.31,0.91,-2.08,0.16
830,32,38.25,62.13,1.49,-0.34,-0.36
840,41.38,43.13,56.69,1.49,1.68,-1.43
850,38.81,43.63,38,2.08,1.59,-1.79
860,26.19,39.25,18.75,1.78,1.43,-1.91
870,0.37,38.25,2.69,-0.31,-0.36,-0.63
880,-23.12,48.56,4.81,-0.77,-0.7,0.12
890,-22.94,62.19,19.87,-0.85,-0.19,0.33
900,-3.56,65.81,29.25,-0.63,0.61,-0.08
910,11.63,61.38,26.56,-0.85,1.27,-1.05
920,8.06,57.94,19.62,-1.08,1.36,-1.06
930,-3.69,55.13,13.63,-0.9,1.47,-0.59
940,-7.44,55.38,7.25,-1.17,1.69,0.09
950,-5.25,64,-0.19,-1.75,1.99,-0.55
960,-9.75,76.62,-7.75,-1.93,1.97,-1.38
970,-22.87,88.94,-14.81,-2.25,2.08,-2.27
980,-36.44,94.69,-25.44,-1.9,1.81,-4.31
990,-43.38,80.5,-43.81,-1.88,1.05,-4.53
1000,-42.56,52.44,-62.56,-2.14,0.05,-4.12
1010,-37.44,26.44,-73.37,-2.4,-1,-3.34
1020,-30.12,9.25,-74.5,-2.61,-2.83,-1.77
1030,-22.5,-0.37,-66.94,-2.48,-3.46,-1.47
1040,-20.06,-3.87,-54.44,-2.37,-3.95,-1.31
1050,-21.69,-5.31,-37.63,-2.16,-4.26,-1.37
1060,-24.37,-7.5,-16.37,-1.89,-3.96,-1.55
1070,-22.69,-14.94,3.19,-1.74,-3.54,-1.5
1080,-17.56,-28.94,15.69,-1.61,-3.3,-1.26
1090,-14.13,-42.06,23.87,-1.51,-3.12,-0.85
1100,-13,-48.5,30.56,-2.09,-2.56,-0.05
1110,-14.38,-47.56,43.13,-1.93,-1.62,0.34
1120,-7.81,-44.19,51.13,-1.9,-0.52,0.47
1130,3.56,-41.63,44.88,-2,0.67,0.18
1140,6.06,-39.06,24.94,-2.63,0.46,0.31
1150,-0.31,-27.44,1.5,-3.33,-0.15,0.3
1160,-5.19,-7.5,-15.63,-3.9,-0.97,-0.39
1170,-3.12,10.06,-24.69,-4.68,-2.32,-2.84
1180,2.62,16.69,-28.5,-4.78,-2.92,-3.9
1190,7,7.87,-28.5,-4.98,-3.57,-4.56
1200,9.63,-12.19,-21.69,-5.07,-4.09,-4.97
1210,12.38,-37,-8.38,-4.94,-5.03,-5.42
1220,15.31,-65.75,11.19,-4.64,-5.13,-5.3
1230,19.06,-96.31,33.5,-4.2,-4.84,-4.62
1240,23.12,-121.69,52.38,-2.92,-3.61,-2.68
1250,25.56,-136.62,65.44,-2.13,-3.01,-1.98
1260,25,-144.12,71.5,-1.4,-2.58,-1.19
1270,25.75,-143.12,71.75,-0.89,-2.32,-0.45
1280,30.56,-135.75,68.19,-0.19,-2.42,0.38
1290,34.06,-127.25,64.75,-0.13,-2.78,0.48
1300,31.87,-112.5,68.56,0.04,-2.84,0.28
1310,24.12,-94.5,78.31,0.62,-2.6,-0.21
1320,16.75,-85.69,86.69,1.6,-1.55,-1.59
1330,12.19,-90.12,88.44,1.96,-1.52,-2.29
1340,5.25,-105.5,83.56,2.35,-1.81,-2.55
1350,-4.25,-126.12,78.62,2.57,-2.09,-1.99
1360,-5.81,-146.31,77.75,2.93,-2.23,0.25
1370,6.19,-157.31,84.37,2.86,-1.9,1.42
1380,33.81,-149.81,99.69,2.85,-1.14,2.4
1390,73.06,-125.31,118,3.49,1.49,2.13
1400,108.19,-96.81,127.94,4.01,2.58,1.07
1410,119.12,-69,123.81,4.3,3.52,-0.03
1420,100.69,-49.75,107.87,4.59,4.38,-0.68
1430,65.25,-40.69,78.87,4.73,4.99,-0.4
1440,29.31,-39.75,40.06,4.26,4.23,0.57
1450,4.31,-38.25,4.25,3.5,2.98,1.53
1460,-8.25,-27.87,-17,2.49,1.68,2.15
1470,-12.75,-5,-13.31,1.14,1.3,2
1480,-6.25,22.44,8.06,1.32,2.52,0.99
1490,11.38,35.88,25.69,1.55,3.72,-0.23
1500,25.19,30,31.19,1.94,4.8,-1.22
1510,19.94,10.75,20.31,2.31,5.85,-1.44
1520,-1.25,-8.44,-1.5,1.8,5.64,-0.5
1530,-22.31,-16,-20.44,1.28,5.27,0.55
1540,-32.69,-8.69,-29.94,1.15,5.32,1.27
1550,-33.94,4.44,-33.56,1.33,5.7,0.98
1560,-36.06,16.44,-40.19,1.63,6.02,0.71
1570,-44,24.06,-53.56,1.88,6.29,0.82
1580,-49.81,32.44,-74.62,1.93,5.62,1.41
1590,-41.88,40.69,-98.06,1.73,4.82,1.22
1600,-27.62,47.56,-117.31,1.43,3.86,0.71
1610,-23.62,54.31,-128.19,1.26,2.99,0.15
1620,-33.63,60.5,-130.19,0.78,1.46,-0.47
1630,-49.75,65.87,-125.12,0.78,1.06,-0.68
1640,-62.5,67.81,-116.31,0.77,0.75,-0.77
1650,-69.75,63.19,-105.81,1.03,0.31,-0.7
1660,-73.56,54.19,-95.56,1.35,0.4,-0.3
1670,-73.62,46.63,-87.94,1.75,0.55,0.33
1680,-67.94,46.63,-87.12,1.93,0.66,0.79
1690,-60.13,60.69,-96.62,1.92,-0.18,-0.24
1700,-57.75,83,-111.62,1.76,-0.9,-1.18
1710,-66.62,108.44,-126,1.55,-1.79,-2.42
1720,-89.75,128.37,-136.87,1.44,-2.77,-3.48
1730,-117.44,129.75,-142.12,0.65,-5.13,-5.01
1740,-131.56,106.06,-135.75,0.25,-6.11,-5.25
1750,-126.25,73.62,-117.81,0,-6.8,-4.91
1760,-107.06,36.63,-91.37,-0.34,-7.21,-4.13
1770,-77.87,7.62,-59.13,-0.42,-6.93,-2.42
1780,-44.75,-7.37,-26.62,-0.2,-6.25,-2.05
1790,-17.62,-8.75,-1.81,-0.03,-5.53,-2.13
1800,-4.75,-3.06,13,0.29,-4.13,-2.88
1810,-4.37,0.31,20.44,0.35,-3.6,-2.9
1820,-7.5,-2.25,23.5,0.32,-3.14,-2.59
1830,-5.75,-7.44,24.75,0.4,-2.64,-2.12
1840,2.69,-11.38,23.5,0.65,-1.91,-1.6
1850,13,-14.19,18.87,0.67,-1.71,-1.4
1860,19.75,-14.06,12.25,0.67,-1.59,-1.32
1870,20.5,-11.5,5.19,0.72,-1.51,-1.3
1880,16.62,-6.69,-3.06,0.51,-1.92,-1.29
1890,10.13,-0.06,-11.19,0.29,-2.49,-1.64
1900,10.13,-0.06,-11.19,0.03,-3.04,-1.97
1910,4.12,5.19,-15.44,-0.44,-3.9,-2.29
1920,3.37,0.06,-5.25,-0.57,-4.07,-2.45
1930,7.56,-8.88,7.69,-0.63,-3.94,-2.28
1940,12.44,-19.25,23.62,-0.5,-3.47,-1.96
1950,19.25,-26.31,37.63,0.03,-1.92,-1.76
1960,26.44,-28.31,44.94,0.23,-1.52,-2.2
1970,25.5,-28.12,42,0.16,-1.64,-2.6
1980,11.56,-28.06,32.56,-0.16,-2.13,-2.8
1990,-7.69,-29.19,25.75,-0.8,-3.39,-2.11
2000,-7.69,-29.19,25.75,-1.06,-3.87,-1.62
2010,-18.12,-32.25,25.5,-1.27,-4.18,-1.32
2020,5.06,-40.63,43.5,-1.29,-4.2,-1.15
2030,23.81,-43.31,58,-1.46,-3.29,-0.76
2040,38.25,-43.19,71.87,-1.63,-2.35,-0.72
2050,38.25,-43.19,71.87,-1.63,-2.35,-0.72
2060,49.56,-39.25,84.69,-1.24,0.87,-1.4
2070,71.44,-34.38,88.69,-1.07,1.56,-1.68
2080,72.69,-34.69,74.75,-1.01,1.79,-2.01
2090,63.06,-36.81,52,-0.94,1.28,-2.3
2100,63.06,-36.81,52,-1.16,0.02,-1.27
2110,42.69,-43.25,31.5,-1.83,-1.28,-0.69
2120,18.81,-51.81,7.44,-2.25,-2.36,-0.56
2130,26.81,-59.19,19.44,-2.19,-2.92,-0.57
2140,34.38,-64.06,46.44,-1.18,-1.82,-0.46
2150,34.38,-64.06,46.44,-0.51,-0.68,-0.6
2160,43.69,-69.19,77.37,0.08,0.44,-0.72
2170,59.94,-88.31,110.37,1.3,1.88,-0.15
2180,56.19,-91.5,102.81,1.46,1.83,0.64
2190,47.56,-92.37,83,1.29,1.19,1.5
2200,47.56,-92.37,83,1.29,1.19,1.5
2210,45.06,-86.44,62.75,1.17,0.54,2.21
2220,71.94,-59.19,56.19,1.32,0.32,1.99
2230,84.37,-45.44,63.75,1.36,0.8,1.67
2240,86.06,-34.88,71.69,1.63,1.41,1.38
2250,86.06,-34.88,71.69,1.63,1.41,1.38
2260,78.31,-25.75,75.87,2.23,2.67,1.32
2270,57.63,-14.38,61.25,2.37,2.97,1.58
2280,49.31,-7.69,46.88,2.23,2.7,1.72
2290,42.56,5.12,33.38,1.38,2.5,1.37
2300,42.56,5.12,33.38,1.38,2.5,1.37
2310,41.19,24,29.37,1.49,3.05,0.7
2320,59.19,45.31,31.81,2.09,5.02,-1.97
2330,60.63,38.13,22.62,2.15,5.26,-2.05
2340,46.5,17.81,3.81,1.97,5.08,-1.25
2350,46.5,17.81,3.81,1.97,5.08,-1.25
2360,17.94,-14.5,-38.56,1.55,4.47,0.03
2370,7.69,1.37,-45.44,-0.15,2.01,2.01
2380,-6.25,23.06,-31.75,-0.5,1.7,1.64
2390,-6.25,23.06,-31.75,-0.58,2.05,0.91
2400,-27.56,42.69,-13.38,-0.58,2.05,0.91
2410,-43.63,51.38,-0.31,0.19,4.15,-0.36
2420,-47.38,49,0.44,1.2,6.04,-0.42
2430,-40.63,39.63,-11.94,2.2,6.72,0.12
2440,-28.69,28.94,-35.94,2.43,6.19,0.44
2450,-17.87,23.06,-69.19,2.43,6.19,0.44
2460,-17.12,27.12,-104,2.38,4.86,0.63
2470,-28,41,-130.5,1.62,0.27,-0.06
2480,-42.38,60,-144.37,1.34,-0.72,-0.56
2490,-51.63,80.81,-146.19,1.23,-1.33,-1.29
2500,-56.31,99.81,-139.25,1.23,-1.33,-1.29
2510,-60.13,106,-128.5,1.21,-1.77,-2.24
2520,-66.06,100.94,-117.31,1.27,-3.25,-4.98
2530,-74.06,77.19,-105.44,1.14,-3.82,-5.34
2540,-82.25,49.06,-93.31,0.93,-4.45,-5.06
2550,-91.75,18.69,-78,0.93,-4.45,-5.06
2560,-98.75,-7.12,-59.63,0.85,-5.12,-3.03
2570,-98,-25.06,-42.94,1.01,-5.17,-0.73
2580,-88.94,-35.94,-29.56,0.84,-5.48,0.16
2590,-78.94,-29.5,-16.12,0.77,-5.74,-0.1
2600,-75.81,-11.94,-1.81,0.77,-5.74,-0.1
2610,-81.37,9.88,17.31,0.75,-5.87,-0.82
2620,-89.87,25.44,41.69,1.22,-3.59,-2.7
2630,-92.31,23.5,66.69,1.53,-2.3,-2.26
2640,-84.75,8.13,85.37,1.77,-1.03,-1.57
2650,-64.81,-5.5,92.44,1.77,-1.03,-1.57
2660,-38,-12,86.37,2.16,0.12,-1.12
2670,-14.06,-14.88,66.5,3.28,1.43,-0.9
2680,-2.31,-14.69,35.63,3.08,0.58,-0.59
2690,-6.69,-7.62,5.5,2.86,-0.49,-0.39
2700,-19.31,4.31,-12.75,2.86,-0.49,-0.39
2710,-28.06,13.69,-17.62,2.52,-2.1,0
2720,-25,18.75,-12.31,2.54,-2.48,0.39
2730,-13.19,21.06,-3.62,2.44,-1.74,0.53
2740,-0.19,24.06,6.44,2.41,-1.03,0.51
2750,8.44,28.06,16.12,2.41,-1.03,0.51
2760,7.81,33.06,26.56,2.48,-0.15,0.34
2770,-5.94,45.13,35.69,3.17,3.9,-0.79
2780,-31.75,73.12,31.75,3.49,4.43,-1.65
2790,-60.94,104.31,0.81,3.33,3.46,-2.93
2800,-78.37,124.31,-54.88,3.33,3.46,-2.93
2810,-78.94,109.12,-114.56,3.19,1.3,-4.07
2820,-70.37,73.81,-154.06,-0.25,-7.85,-4.17
2830,-64.19,28.81,-148.87,-1.59,-9.41,-2.57
2840,-59.38,-13.81,-97.94,-1.41,-7.65,1.53
2850,-41.25,-41.63,-10.38,-1.41,-7.65,1.53
2860,-6.56,-50.44,70.56,-0.24,-5.17,2.64
2870,32.94,-33.06,119.81,1.34,-0.75,2.06
2880,56.25,-7.19,137.94,2.27,2.35,0.43
2890,51.19,23.75,131.44,2.47,3.45,0.22
2900,31.62,48.13,111.31,2.47,3.45,0.22
2910,18.44,66.12,80.69,2.42,4.29,0.2
2920,17.87,74.19,38.69,2.19,4.61,-0.07
2930,21.56,77.19,-5.5,0.57,3.14,-1.21
2940,19.94,79.19,-41.13,0.03,1.62,-1.63
2950,15.25,75.44,-59.88,-0.66,0.24,-2.38
2960,3.62,68.37,-66.75,-1.28,-0.79,-2.74
2970,-9.56,63.13,-61.63,-2.88,-2.52,-2.33
2980,-13.75,60.38,-42.88,-3,-2.42,-2.21
2990,-7.37,57.94,-23.37,-3.17,-1.78,-2.08
3000,9.69,53.31,-13,-3.29,-0.49,-2.12
3010,32,48.69,-14,-3.52,-0.21,-2.23
3020,52,46.88,-21.44,-4.06,-0.13,-2.52
3030,65.19,47.44,-28.19,-4.27,-0.11,-3.22
3040,61.81,43.63,-34.75,-4.38,-0.69,-5.19
3050,37.56,33.69,-40.69,-4.76,-1.21,-5.5
3060,5.56,19.69,-39.94,-5.09,-1.6,-5.28
3070,-14.19,3.5,-33.56,-5.28,-1.76,-4.79
3080,-12.94,-15.25,-25.25,-5.19,-1.75,-4.21
3090,-0.56,-36.38,-18.25,-5.19,-1.73,-4.06
3100,9.13,-56.56,-8.69,-4.71,-1.32,-3.9
3110,13.75,-76.37,-3.56,-3.24,-0.43,-2.74
3120,14.75,-94.19,-8.63,-2.78,-0.64,-2.04
3130,11.38,-105.37,-18.44,-2.43,-1.16,-1.5
3140,3.94,-110.69,-25,-2.21,-1.73,-0.88
3150,-3.31,-109.19,-24.75,-2.13,-2.55,0.59
3160,-5.19,-101.69,-16.87,-1.97,-2.54,1.12
3170,1.31,-90.25,-7.94,-1.79,-2.42,1.41
3180,13.13,-72.19,-2.06,-1.51,-2.26,1.41
3190,23.94,-50.88,-1.5,-1.22,-2.58,-0.02
3200,28,-33.56,-2.44,-1.09,-2.89,-1.12
3210,26.69,-26.06,1.19,-0.9,-3.01,-2.05
3220,25.25,-30.5,8.06,-0.49,-2.98,-2.77
3230,27.25,-47.5,14.88,0.38,-2.91,-3.27
3240,30.94,-72.62,18.81,0.74,-3.09,-2.7
3250,32.06,-94.81,21.19,1.08,-3.32,-1.75
3260,33.38,-109.19,22.81,1.39,-3.79,0.2
3270,39.94,-115.94,28.06,1.31,-3.83,1.02
3280,52,-107.31,40.88,1.41,-3.51,1.4
3290,65.37,-86.94,57.75,1.75,-2.83,1.47
3300,75.31,-64.25,68.37,2.51,-1,0.81
3310,80.81,-45.31,68.56,2.86,-0.32,0.28
3320,81.87,-34.5,57.75,2.72,-0.1,0
3330,80.19,-29.25,44.75,2.54,0.09,-0.2
3340,78.44,-27.81,34.44,2.61,0.39,-0.06
3350,78.12,-30.94,25.44,2.56,0.3,0.2
3360,77.87,-36.19,18.06,2.3,0.05,0.63
3370,75.87,-37.19,14.38,1.75,-0.52,1.45
3380,74.25,-29.5,16.44,1.44,-0.56,1.52
3390,72.06,-14.06,24.87,0.98,-0.42,1.3
3400,66.81,2.56,37.81,0.66,0.02,0.72
3410,60.31,12.81,53.69,0.53,1.54,-0.41
3420,54.44,12.44,70.5,0.98,2.59,-0.65
3430,49.13,4.12,80.75,1.44,3.64,-0.55
3440,43.88,-9.19,78.69,1.7,4.5,-0.26
3450,38.94,-20.87,65.75,1.98,5.64,1.04
3460,32.81,-24.31,46.38,1.92,5.82,1.74
3470,26.06,-16.06,24.75,1.89,5.76,2.26
3480,19.06,3,3.75,1.64,5.4,2.41
3490,10.63,30.06,-11.44,1.23,4.6,1.32
3500,2.12,50.5,-18.25,1.02,4.47,0.57
3510,-5,58.75,-20.25,0.82,4.55,-0.03
3520,-14.56,60.94,-20.69,0.88,5.05,-0.95
3530,-26.37,59.81,-22.25,1.15,5.51,-1.16
3540,-35.56,49.88,-29.69,1.41,5.74,-1.03
3550,-38.44,33.38,-44.38,1.48,5.62,-0.51
3560,-38.94,22.37,-60.63,1.28,4.7,0.92
3570,-42.44,25.5,-75.06,1.24,4.19,1.37
3580,-47.44,40.31,-87.12,1.19,3.65,1.37
3590,-49.44,57.94,-98.37,1.06,3.03,1.02
3600,-49.44,72.19,-107.69,0.93,1.62,-0.27
3610,-52.44,82.56,-114.69,0.85,0.87,-0.76
3620,-59.5,90.06,-119.62,0.66,0.17,-1.17
3630,-66.81,93.12,-121.87,0.57,-0.55,-1.43
3640,-69.87,90.81,-119.37,0.14,-2.26,-2.2
3650,-71.94,84.19,-109.37,-0.06,-2.96,-2.68
3660,-75.44,71.94,-94.25,-0.22,-3.54,-3.06
3670,-82.12,60.06,-74.56,-0.55,-4.24,-3.68
3680,-87.44,48.25,-51.13,-0.4,-4,-3.71
3690,-83.19,33,-29.12,-0.18,-3.6,-3.6
3700,-68.87,14.38,-14.06,0.07,-3.28,-3.36
3710,-53.19,-3.19,-7.31,0.42,-2.83,-2.25
3720,-43.38,-13.5,-5.62,0.41,-2.78,-1.6
3730,-39.44,-12.69,-6.62,0.34,-2.81,-1.22
3740,-36.81,-3.56,-8,0.26,-2.91,-1.09
3750,-32.56,7.94,-8.69,-0.16,-3.18,-2.05
3760,-28.5,15.63,-7.44,0.18,-3.24,-2.86
3770,-28.87,13,-4.06,0.15,-3.12,-3.1
3780,-29.62,0.75,-1,0.12,-2.97,-2.15
3790,-24.56,-12.88,2.19,0.18,-2.7,-1.57
3800,-17.06,-20.19,5.75,0.36,-2.32,-1.19
3810,-11.56,-21,6.25,0.46,-2.08,-0.99
3820,-11.69,-17.94,2.5,0.34,-2.13,-0.75
3830,-17.62,-11.69,-1.75,0.27,-2.34,-0.79
3840,-24.31,-3.56,-4.5,0.11,-2.58,-0.91
3850,-25.25,1.44,-3.94,0.01,-2.74,-1.15
3860,-19.69,0.88,-0.37,0,-2.59,-1.44
3870,-11.06,-3,5.56,0.14,-2.15,-1.43
3880,-3,-6.69,9.56,0.24,-1.78,-1.5
3890,0.56,-6.87,8.31,0.22,-1.59,-2.06
3900,-2.69,-4.69,3.06,-0.01,-1.88,-2.44
3910,-10.81,-1.44,-3.5,-0.18,-2.4,-2.9
3920,-21.06,-1.12,-9.19,-0.53,-3.02,-3.32
3930,-33.06,-3.06,-12.5,-1.45,-4.23,-3.75
3940,-44.44,-4.06,-12.13,-1.8,-4.61,-3.76
3950,-46,-5.12,-6.37,-2.19,-4.67,-3.82
3960,-30.62,-8.63,4,-2.25,-4.41,-3.95
3970,0.31,-17.37,15.56,-1.87,-2.86,-4.24
3980,37.44,-30.25,24.69,-1.3,-2.01,-4.69
3990,64.12,-43.63,24.75,-0.73,-1.59,-5.14
4000,66.87,-58.06,14.63,-0.46,-1.81,-5.06
4010,48.88,-72.81,1.44,-0.49,-3.33,-3.26
4020,27.25,-84.37,-5.25,-0.57,-4.1,-2.1
4030,19.44,-95.37,-1.44,-0.76,-4.6,-0.98
4040,26.25,-104.37,14.63,-0.75,-4.41,0.88
4050,39.88,-110.25,39,-0.57,-3.67,1.49
4060,57.13,-105.69,67.62,-0.09,-2.62,1.43
4070,73.19,-93.25,93.94,0.67,-1.41,1.03
4080,79.75,-84.94,110.94,1.85,0.76,0.76
4090,74.56,-79.81,114.44,2.3,1.4,0.84
4100,63.06,-73.37,107.12,2.43,1.68,1.16
4110,52.06,-65.69,92.12,2.24,1.64,1.55
4120,47.56,-54.56,74.69,1.51,0.66,1.86
4130,51.63,-44.56,65.31,1.17,0.32,1.65
4140,57.88,-35.88,67.87,1.05,0.39,1.3
4150,61.5,-29.44,78.5,1.19,0.76,0.84
4160,61.38,-28.31,89.25,1.5,2.13,0.69
4170,59.25,-32.63,96.62,1.82,2.92,0.95
4180,58.63,-38.88,99.31,2.03,3.75,1.38
4190,61.31,-42.69,92.25,2.21,4.69,1.83
4200,61.69,-39.69,74.31,1.98,4.4,1.8
4210,54.81,-32.44,50,1.63,3.57,1.63
4220,40.94,-22.25,29.12,0.83,2.47,1.81
4230,24.06,-6.37,22.37,0.36,2.14,2.23
4240,16.44,6.12,30.37,0.65,2.93,2.13
4250,23.37,13.88,40,0.82,3.83,1.86
4260,35.25,18.81,42,1.03,4.53,1.43
4270,38.88,23.75,35.25,1.53,5.45,0.86
4280,32.06,29.81,18.31,1.35,5.11,0.61
4290,20.25,38,-5.37,0.94,4.15,0.2
4300,5.44,45.94,-26.5,-0.48,2.07,-0.15
4310,-11.06,53.5,-33.06,-0.46,2.08,-0.13
4320,-20.19,65.5,-23.75,-0.27,2.86,-0.7
4330,-16.12,67.37,-9.75,0.56,3.93,-1.29
4340,-9.56,49.94,-5.94,1.56,5.25,-1.5
4350,-8.06,30.12,-18.12,1.67,5.06,-0.72
4360,-18.94,9.94,-69.5,1.59,4.17,0.11
4370,-18.94,9.94,-69.5,1.15,2.79,0.74
4380,-25.81,15.63,-89.75,0.2,0.15,1.2
4390,-33.19,38.13,-90.62,-0.04,-0.62,1.12
4400,-29.69,47.63,-75.62,-0.21,-1.07,0.84
4410,-24.5,53.31,-58.31,-0.13,-1.11,0.33
4420,-23.06,54.94,-44.44,0.33,-0.73,-1
4430,-26.87,51.81,-36.63,0.64,-0.3,-1.48
4440,-31.31,45.19,-36.19,0.91,0.07,-1.67
4450,-33.44,37.69,-42.25,1.23,-0.04,-1.79
4460,-37.31,31.56,-52.06,1.26,-0.62,-1.7
4470,-44.44,29.5,-64.56,1.03,-1.52,-1.42
4480,-53.31,32.5,-70.5,0.6,-2.76,-1.21
4490,-61.25,40.25,-60.88,-0.41,-4.65,-0.96
4500,-62.81,48.56,-36.56,-0.66,-4.81,-0.88
4510,-51.38,49.25,-6.12,-0.49,-4.29,-0.82
4520,-25.94,42.75,16.81,0,-3.02,-0.9
4530,0.94,35.88,23.5,1.06,-0.17,-1.52
4540,14.19,31.94,11.94,1.39,0.61,-1.85
4550,9.25,32.44,-11.69,1.5,0.8,-2.17
4560,9.25,32.44,-11.69,0.78,-1.02,-2.83
4570,-31.94,39,-48.69,0.29,-2.24,-2.92
4580,-52,38.94,-48,-0.08,-3.12,-2.95
4590,-61.69,32.13,-35.44,-0.32,-3.74,-2.91
4600,-57.25,16.5,-15.69,-0.33,-3.66,-2.25
4610,-57.25,16.5,-15.69,0.03,-2.8,-1.34
4620,-39.75,-1.56,4,0.52,-1.7,-0.47
4630,6.37,-17.19,14.44,0.97,-0.69,0
4640,15.63,-8.5,2.12,1.51,0.14,0.36
4650,10.06,10.81,-14.63,1.49,-0.09,0.09
4660,10.06,10.81,-14.63,1.38,-0.77,-0.59
4670,-5,30.94,-28.81,1.17,-1.59,-1.24
4680,-27.06,39.19,-29.06,0.94,-2.54,-1.83
4690,-22.81,27,-18.25,1.18,-2.38,-1.69
4700,-9,13.44,-9.06,1.61,-1.86,-1.4
4710,-9,13.44,-9.06,2.5,-1.14,-0.69
4720,5.44,2.69,-8.44,2.74,-1.11,-0.42
4730,9.69,2.5,-20.44,2.96,-1.24,-0.14
4740,5.37,8.75,-25.12,3.03,-1.4,0.13
4750,3.5,15.88,-26.12,2.94,-1.82,0.75
4760,3.5,15.88,-26.12,2.97,-1.59,0.92
4770,5.87,24.12,-22.75,3.08,-1.15,0.98
4780,29.25,32.63,-20,3.19,-0.63,0.99
4790,39.88,35.44,-25.31,3.58,0.31,0.62
4800,41.44,40.19,-36.94,3.52,0.35,0.45
4810,41.44,40.19,-36.94,3.44,0.2,0.22
4820,33.19,49.19,-50.56,3.17,-0.39,-0.03
4830,5.75,68.06,-68.19,2.67,-1.91,-0.74
4840,-1.69,75,-67.12,2.34,-2.39,-1
4850,-2.56,75.75,-60.56,1.78,-2.82,-1.45
4860,-2.56,75.75,-60.56,1.24,-3.18,-2.46
4870,0.06,67.31,-48.06,1.01,-3.29,-2.47
4880,-0.5,28.19,-18.31,0.23,-3.23,-1.79
4890,-1.12,14.94,-3,0.89,-3.21,-0.73
4900,4.56,9.44,10.13,0.69,-2.01,0.74
4910,4.56,9.44,10.13,0.69,-2.01,0.74
4920,6.56,18,16.81,0.08,-1.89,0.78
4930,-24.62,67.5,30.44,-0.91,-1.45,-1.04
4940,-37.69,79.62,35.31,-1.61,-0.65,-2.46
4950,-29.81,77.37,36.19,-1.52,-0.33,-3.11
4960,-29.81,77.37,36.19,-1.52,-0.33,-3.11
4970,-7.25,57.44,32.69,-1.59,-0.18,-3.94
4980,12.44,-10.06,23.44,-2.55,-1.2,-2.69
4990,3.5,-24.62,29.87,-2.73,-1.23,-1.54
5000,-5.37,-22.56,40.31,-3.11,-1.03,-0.63
5010,-5.37,-22.56,40.31,-3.11,-1.03,-0.63
5020,-11,-9.5,49,-3.31,-0.21,-0.38
5030,-25.06,17.62,52.81,-3.53,0.41,-1.49
5040,-24.31,16.62,52.25,-3.69,0.81,-1.65
5050,-11.94,8.13,50.06,-3.67,2.06,-1.73
5060,-11.94,8.13,50.06,-3.67,2.06,-1.73
5070,3.25,0.44,40.88,-3.44,2.56,-1.99
5080,10.63,-4.44,23.12,-3.43,1.81,-2.45
5090,5.37,-6.81,-2.75,-3.68,0.73,-2.41
5100,-10.38,-5.31,-29.44,-3.77,-0.25,-2.4
5110,-26.69,-1.44,-47.88,-3.77,-0.25,-2.4
5120,-32.88,1.81,-56.63,-3.8,-1.14,-2.53
5130,-27.75,1.44,-54.94,-2.98,-2.45,-3.93
5140,-17.81,-5.62,-44.5,-2.54,-2.46,-4.17
5150,-7.81,-20.5,-32.75,-2.05,-2.66,-4.22
5160,-0.62,-38.81,-24.94,-2.05,-2.66,-4.22
5170,3.44,-55.31,-17,-1.74,-2.97,-3.82
5180,5.81,-69,-5.87,-1.04,-2.62,-3.46
5190,6.19,-83,5.31,-0.63,-2.39,-2.97
5200,4.25,-96.62,12.88,-0.21,-2.13,-1.04
5210,3.25,-109.06,15.5,-0.21,-2.13,-1.04
5220,8.88,-115.19,16.06,-0.22,-2.09,-0.18
5230,21.37,-110.5,18.19,0.13,-1.29,-0.25
5240,35.06,-94.56,22.87,0.54,-1.08,-1.45
5250,40.63,-76.25,24.75,0.66,-0.96,-1.96
5260,28,-66.25,20.69,0.66,-0.96,-1.96
5270,6.5,-64.69,10.25,0.68,-1.61,-2.42
5280,-6.56,-74.06,5,0.08,-2.75,-0.53
5290,-4.06,-82.81,13.19,0.33,-2.23,-0.14
5300,11.88,-87.56,27,0.53,-1.7,-0.01
5310,30.81,-89.37,36.75,0.53,-1.7,-0.01
5320,42.19,-86.19,39.31,0.95,-0.91,0.08
5330,44.19,-77.87,35.63,1.08,-1.21,-0.08
5340,39.88,-70.56,29.37,0.88,-1.57,-0.07
5350,32.06,-64.5,27,0.66,-1.42,0.16
5360,24.06,-57.56,32.5,0.66,-1.42,0.16
5370,19.81,-52.88,41.5,0.6,-0.97,0.18
5380,20.06,-48.25,48.63,0.69,0.92,-0.2
5390,22.94,-42.56,51.19,0.69,1.53,-0.43
5400,31,-37.63,49.31,0.9,2.07,-0.75
5410,42.81,-36.75,43.81,0.9,2.07,-0.75
5420,52.31,-42.63,33.5,1.2,2.5,-0.92
5430,55.19,-53.06,17.87,1.46,2.52,0.71
5440,53.19,-59.44,-2.12,1.35,1.81,1.21
5450,49.13,-55.25,-25.31,1.17,0.66,1.36
5460,44.44,-40.88,-47.13,1.17,0.66,1.36
5470,36.5,-22,-61.06,0.5,-1.99,0.79
5480,24.31,-5.5,-62.13,0.06,-3.96,0.36
5490,13.88,4.75,-50.31,-0.14,-5.2,0.14
5500,11,7.25,-29.44,-0.13,-5.52,0.18
5510,13.56,3.12,-2.87,-0.13,-5.52,0.18
5520,17.69,-3,29.25,0.04,-5.42,0.35
5530,21.81,-5.56,64.31,1.47,-2.4,0.68
5540,27.75,-4.12,94.62,1.9,-1.39,0.64
5550,35.38,-1.5,114.56,2.21,-0.67,0.57
5560,40.56,1.06,121.81,2.21,-0.67,0.57
5570,41.5,4.5,116.81,2.23,-0.26,0.62
5580,39.56,9.38,107.62,1.9,0.2,0.5
5590,37.44,13.25,100.37,1.82,0.26,0.55
5600,35.81,15.44,94.31,1.47,0.28,0.71
5610,37.13,18.94,92.5,1.58,1.17,0.82
5620,42.25,22.62,90.37,1.52,1.53,0.84
5630,49.88,24.75,84.62,1.36,1.89,0.95
5640,59.44,24.06,77.31,1.52,2.39,1.4
5650,78.12,19.06,69.44,1.14,3.35,2.4
5660,104.19,16.94,61.5,0.75,3.75,2.42
5670,125.44,23.19,61.13,0.76,4.67,2.06
5680,132.56,35.06,66.69,0.99,5.97,1.59
5690,121.25,52.13,64.87,1.81,8.69,-0.02
5700,92.62,72.25,48.06,2.15,9.63,-0.8
5710,56.63,89.94,14.69,2.43,10.02,-1.39
5720,26.5,100.81,-29.31,2.4,9.85,-1.87
5730,11.31,98.69,-76.94,1.86,7.16,-2.67
5740,9.19,81.69,-116.25,1.51,5.46,-2.75
5750,8.75,58.5,-138.62,1.34,4.02,-2.46
5760,1.87,39.38,-144.31,1.29,2.23,-1.28
5770,-11.5,30.06,-139.62,1.44,1.98,-0.66
5780,-30.06,32.13,-133,1.56,1.87,-0.2
5790,-48.81,44.81,-129,1.76,1.69,-0.01
5800,-60.94,62.69,-130.75,1.96,0.8,-0.85
5810,-64.5,79.12,-139.56,1.76,-0.2,-1.85
5820,-69.37,91.5,-152.87,1.37,-1.52,-2.82
5830,-82.19,92.25,-158.19,0.98,-2.78,-3.33
5840,-91.69,81.69,-149.62,0.37,-4.77,-3.43
5850,-87.75,64.19,-130.62,0.15,-5.17,-3.1
5860,-72,43.69,-106,0.13,-5.48,-2.87
5870,-56.13,25.87,-83.56,0.18,-5.66,-2.65
5880,-47.56,14.94,-64.37,0.2,-5.63,-1.84
5890,-42.63,12.88,-48.63,0.31,-5.51,-1.66
5900,-37.31,16.25,-37.5,0.06,-5.48,-1.73
5910,-35.56,23.56,-29.75,0.25,-5.36,-2.64
5920,-35.56,28,-23.37,0.05,-5.3,-2.81
5930,-32.56,26.75,-17.87,-0.11,-5.26,-3.21
5940,-25.81,21.31,-12.69,-0.17,-5.18,-3.56
5950,-17.94,7.87,-8.75,0,-4.98,-3.02
5960,-10.31,-8.5,-5.25,-0.05,-4.77,-2.06
5970,-3.44,-18.81,-4.69,-0.31,-4.75,-1.51
5980,0.69,-15.88,-6,-0.54,-4.82,-1.66
5990,-2.25,-7.56,-6.19,-0.94,-5.1,-2.84
6000,-9.5,-5.62,-5.5,-1.38,-5.43,-3.04
6010,-16.25,-11.31,-2.81,-1.76,-5.71,-2.9
6020,-18.5,-20.56,5.5,-2.06,-5.33,-1.9
6030,-12.19,-28.75,19.12,-1.93,-4.76,-1.79
6040,0.69,-32.25,30.44,-1.87,-4.28,-2.08
6050,11.13,-34,36.56,-1.8,-3.92,-2.46
6060,12.88,-37.69,40.69,-1.6,-3.14,-2.53
6070,6.19,-44.06,44.38,-1.37,-2.85,-2.23
6080,-3.94,-50.13,45.94,-1.14,-2.75,-1.83
6090,-13.06,-54.75,43.88,-0.96,-3.06,-1.4
6100,-18.5,-57.81,39.06,-1.49,-4.94,-0.78
6110,-21.56,-59.13,39.31,-1.88,-5.88,-0.54
6120,-23.31,-59.75,53.94,-1.94,-6.16,-0.18
6130,-16.75,-61.31,84.69,-1.46,-5.41,0.36
6140,3.75,-63.63,118.81,0.15,-2.6,0.28
6150,29.62,-68.5,143.56,1.09,-1.39,0.04
6160,43.25,-76.31,151.31,1.81,-0.71,0.17
6170,40.81,-84,140.94,2.12,-0.91,1.65
6180,30,-83.69,121.75,2.13,-1.76,2.55
6190,21.44,-81,104.69,1.97,-2.93,3.4
6200,24,-74.25,95.94,1.75,-4.15,4
6210,37.38,-66.87,101.87,1.59,-5.31,4.84
6220,56.75,-64.5,123.87,1.5,-5.13,4.88
6230,76.37,-53.75,160.69,1.75,-3.92,4.97
6240,92.75,-25.81,204.87,2.4,-1.81,4.85
6250,111.31,23.87,241.19,3.63,3.4,2.63
6260,127.06,74.06,259.31,4.41,5.86,1.27
6270,133.87,128.37,251.19,4.88,8.08,-1.35
6280,119.37,164.75,209.37,4.79,9.43,-4.69
6290,64.37,171.31,152.37,4.27,10.24,-9.09
6300,-2.75,130.25,90.69,3.57,9.28,-8.97
6310,-37,58,32,2.68,7.75,-7.22
6320,-30.25,-25.94,-8.06,2.28,6.43,-1.34
6330,3.31,-90.75,-26.12,2.69,6.95,0.78
6340,42.69,-126.37,-37,3.28,7.43,2.26
6350,75.31,-139.06,-57.06,3.59,7.42,2.87
6360,90.19,-125,-87.25,3.39,5.13,2.36
6370,11.25,-19.31,-146,2.83,3.29,1.75
6380,11.25,-19.31,-146,2.24,1.53,1.26
6390,-50.5,31.5,-152.69,1.5,0.2,1.07
6400,-82.87,110.12,-115.31,0.25,-1.1,-0.16
6410,-64.37,104,-80.37,0.66,-0.45,-1.48
6420,-38,76.06,-54,1.08,0.76,-2.66
6430,-12.56,33.69,-48,1.8,3.45,-3.2
6440,-0.44,1.94,-62.69,2.34,4.01,-2.76
6450,-3.31,-17.69,-87.37,2.31,3.76,-1.98
6460,-16.56,-21,-109.62,2.1,2.95,-1.05
6470,-33.25,-11.94,-124.94,1.55,0.88,0.02
6480,-46.81,-0.31,-134.75,1.27,-0.1,0.39
6490,-55.63,14.63,-137.25,0.91,-0.96,0.59
6500,-56.19,31.31,-133.19,0.65,-1.68,0.68
6510,-44.06,44.94,-125.37,0.51,-2.49,-0.09
6520,-24.75,51.38,-118.06,0.67,-2.61,-0.8
6530,-9.13,49.31,-114.75,0.85,-2.65,-1.4
6540,-4.44,45.38,-117.06,1.1,-2.68,-1.84
6550,-14.06,42.94,-127.12,1.35,-3.51,-2.86
6560,-33.44,38,-143.06,1.29,-4.48,-3.13
6570,-54.31,30.5,-155.37,0.83,-5.87,-3.26
6580,-71.19,17.5,-151.75,-0.7,-8.98,-2.88
6590,-79.06,2.5,-122.31,-1.25,-9.77,-2.17
6600,-71.25,-8.81,-69.75,-1.71,-10.03,-1.25
6610,-46.38,-13.38,-8.31,-1.3,-9.04,-0.53
6620,-14.06,-12.06,36.31,0.25,-4.6,-0.87
6630,8.94,-9.5,56.81,0.8,-2.59,-1.61
6640,13.19,-7.87,56.44,1.42,-0.88,-2.31
6650,5.12,-12.88,37,2,0.34,-2.76
6660,-5.31,-24.94,3.87,2.55,0.93,-2.3
6670,-14.38,-36.69,-30.25,2.26,0.01,-1.65
6680,-23.12,-42.94,-51.13,1.99,-1.3,-0.96
6690,-26.56,-43.69,-54.44,1.43,-3.31,0.21
6700,-21.87,-41.81,-42.25,1.23,-3.61,0.49
6710,-12,-35.56,-20.06,1.36,-3.3,0.56
6720,0.25,-28.25,0.94,1.8,-2.39,0.34
6730,13.81,-24.25,12.38,2.57,-0.33,-0.17
6740,26.81,-24.12,13.13,2.99,0.45,-0.46
6750,38.56,-27.69,2.69,3.27,1.02,-0.63
6760,46.56,-35.13,-15.94,3.43,1.18,-0.78
6770,44.56,-44.44,-35.69,3.17,0.04,-0.5
6780,32.25,-46.75,-51.25,3.03,-0.61,0.26
6790,23.81,-41.69,-56.38,2.35,-1.44,0.69
6800,20.37,-29.94,-45.94,1.6,-1.83,1.09
6810,23.62,-13.63,-29.69,2.01,-1.14,1.36
6820,34,-1.12,-18,2.13,-0.49,1.07
6830,43.25,6.75,-12.31,2.53,0.07,0.46
6840,38.25,5.69,-13.5,3.36,0.76,-0.73
6850,15.75,-0.19,-23.37,3.5,1.05,-0.73
6860,-15.63,-2.19,-48.13,3.23,0.78,-0.33
6870,-45.69,3.81,-81.62,2.07,-0.24,0.22
6880,-68.19,16.75,-106.31,0.94,-3.61,1.08
6890,-76.75,30.56,-109.87,-0.52,-4.8,1.76
6900,-76.37,58.56,-96.75,-1.55,-6.15,2.53
6910,-56.69,98.37,-56.69,-3.55,-7.35,3.04
6920,-15.13,138.37,19.06,-3.77,-5.7,0.96
6930,30.94,160.69,89.12,-3.14,-3.72,-0.99
6940,60.56,167.25,133.06,-1.16,-2.05,-3.17
6950,62.88,151.31,148.12,-0.19,1.24,-7.25
6960,32.44,116.44,131.19,-0.69,1.71,-7.83
6970,-10.06,67.87,103.31,-1.02,1.94,-7.37
6980,-39.5,17.37,75.37,-1.25,2.1,-5.7
6990,-42.88,-17.44,47.38,-2.29,1.65,-1.96
7000,-27.31,-31.12,24.19,-2.53,1.19,-0.75
7010,-7.19,-28.25,6.44,-2.34,0.79,-0.51
7020,6.06,-20.37,-9.63,-3.14,0.25,-0.39
7030,8.88,-7.81,-22.06,-2.92,-0.39,-0.24
7040,5.81,5.69,-36,-3.1,-0.78,-0.04
7050,-0.88,21.25,-52.44,-3.25,-1.49,-0.27
7060,-13.06,36.81,-65.37,-4.02,-2.43,-0.36
7070,-23.25,51.81,-67.37,-4.5,-4.27,-1.59
7080,-22.75,56.13,-53.5,-5.19,-4.92,-2.49
7090,-22.06,45.25,-25,-5.57,-5.19,-3.18
7100,-19.94,22.12,12.38,-4.09,-3.57,-3.62
7110,-9.88,-13,43.5,-3.56,-2.39,-3.12
7120,6.5,-47.38,55.31,-2.86,-1.53,-2.6
7130,21.5,-72.25,53.81,-2.27,-1.02,-2.18
7140,26.5,-84.19,44.81,-2.25,-1.11,-1.67
7150,18.5,-84.25,34.38,-2.11,-1.32,-1.59
7160,3.25,-77.69,26.56,-2.07,-1.62,-1.39
7170,-9.25,-68.44,23.06,-2.1,-1.92,-1.31
7180,-14.19,-63.69,22.31,-1.93,-2.43,-1.29
7190,-11.69,-65.06,23.5,-1.9,-2.69,-1.39
7200,-4.37,-69.37,28.87,-1.99,-2.76,-1.26
7210,7.62,-74.87,38.44,-1.61,-1.92,-0.76
7220,23.19,-80.31,46.88,-1.25,-1.27,-0.69
7230,35.44,-83.06,47.31,-0.89,-0.82,-0.75
7240,37.31,-80.87,37.5,-0.62,-0.76,-0.77
7250,29.81,-73.31,21.44,-0.9,-1.83,-0.12
7260,21.19,-61,11.75,-0.92,-2.29,-0.18
7270,21.19,-61,11.75,-0.85,-2.61,-0.52
7280,3.5,-31.94,17.5,-0.63,-2.92,-0.88
7290,-5.37,-20,24.5,-0.56,-2.99,-1.8
7300,-3.56,-15.94,36.13,-0.05,-2.67,-2.49
7310,6.5,-25.81,46.31,0.65,-2.3,-3.01
7320,6.5,-25.81,46.31,1.08,-2.06,-3.09
7330,18.5,-48.19,50.13,1.59,-2.06,-1.68
7340,29.87,-92.44,48.19,1.83,-2.01,-0.75
7350,34,-108.37,48.19,1.97,-1.96,0.18
7360,44.06,-104.81,48.31,2.2,-1.54,2.02
7370,44.06,-104.81,48.31,2.55,-0.99,2.29
7380,59.75,-80.44,50.06,3.11,-0.24,2.09
7390,103.37,-31.37,41.44,3.65,0.5,1.53
7400,121.12,-18.94,22.81,3.85,0.9,0.39
7410,124.06,-11.5,-3.94,3.66,0.4,0.19
7420,124.06,-11.5,-3.94,3.27,-0.41,0.01
7430,114.62,-4.06,-29.56,2.91,-1.23,-0.02
7440,95.5,5.37,-50.44,1.89,-2.97,-0.29
7450,88.62,6.75,-39.94,1.55,-3.59,-0.6
7460,78.19,3.5,-16.06,1.05,-3.89,-0.75
7470,78.19,3.5,-16.06,1.34,-2.53,-0.21
7480,66.87,-3.69,20.06,1.67,-1.1,-0.09
7490,57.69,-14.06,85,1.61,-0.1,0.02
7500,51.38,-14.5,98.56,1.75,0.69,0.22
7510,42.25,-11.19,105.94,1.97,2.35,0.42
7520,42.25,-11.19,105.94,2.03,2.74,0.46
7530,34.56,-8.19,105.69,1.67,2.84,0.33
7540,10.88,-6.25,90.12,1.55,2.82,0.16
7550,-16.5,-0.19,82.75,0.91,3.1,1.04
7560,-37.63,13.5,81.87,0.61,3.68,1.49
7570,-37.63,13.5,81.87,0.61,3.68,1.49
7580,-36.25,30,86.06,0.65,4.49,1.42
7590,6.56,45.69,81.25,2.09,7.57,-1.05
7600,8.69,35.31,54.25,2.2,7.9,-1.28
7610,-9.25,23.81,13.19,2.08,7.51,-0.91
7620,-9.25,23.81,13.19,2.08,7.51,-0.91
7630,-35.5,18.81,-30.19,0.77,4.7,0.48
7640,-63.75,34.5,-72,-0.42,2.61,0.86
7650,-60.63,44.19,-69.19,-0.59,2.18,0.61
7660,-51.88,50.81,-57.94,-0.04,2.75,-0.42
7670,-51.88,50.81,-57.94,-0.04,2.75,-0.42
7680,-43.06,51.88,-50.56,0.47,3.24,-1.1
7690,-45.38,40.19,-65.75,1.07,3.39,-1.41
7700,-56.19,36.56,-83.19,1.13,1.88,-1.09
7710,-66.75,36.06,-98.56,1.18,1.23,-0.91
7720,-66.75,36.06,-98.56,1.18,1.23,-0.91
7730,-72.69,33.88,-111.75,1.09,0.25,-0.69
7740,-75.75,31.87,-122.56,0.25,-2.93,0.17
7750,-77.44,32.31,-126.5,0.17,-3.54,0.22
7760,-74.94,39.56,-121.5,0.21,-4.05,0.04
7770,-66.12,49.19,-111.81,0.21,-4.05,0.04
7780,-52.94,54.5,-102.69,0.08,-5.19,-0.44
7790,-37.56,51.56,-94.5,-0.61,-6.29,-0.88
7800,-24.19,49.31,-82.87,-1.26,-6.41,-1.32
7810,-18.06,52.31,-62.19,-0.86,-5.53,-3.32
7820,-20.62,63.81,-35.69,-0.86,-5.53,-3.32
7830,-27.44,73.06,-11.81,-1.05,-4.91,-4.37
7840,-34.56,73.25,2.87,-0.73,-3.69,-5.88
7850,-38.56,58.88,15.63,0.26,-1.75,-4.37
7860,-33.88,25.06,24.19,0.46,-1.4,-2.74
7870,-15.63,-18.37,21.81,0.46,-1.4,-2.74
7880,6.69,-51.31,10.69,0.55,-1.5,-1.29
7890,16.31,-61.31,-2,0.47,-2.39,1.26
7900,11.69,-54.06,-13.5,0.36,-2.75,1.65
7910,3.69,-36,-22.06,0.32,-2.99,1.51
7920,-0.81,-8.31,-25.19,0.32,-2.99,1.51
7930,-2.75,19.75,-24.69,0.15,-3.21,0.12
7940,-3.62,40.94,-23.12,-0.21,-3.38,-2.15
7950,-4.75,53.38,-21.44,-0.33,-3.47,-3
7960,-7.62,51,-18.44,-0.54,-3.42,-3.59
7970,-11,38.63,-12.81,-0.54,-3.42,-3.59
7980,-12.44,18.81,-6.37,-0.63,-3.34,-3.33
7990,-12.44,-3.31,-0.13,-0.74,-2.9,-1.74
8000,-9.94,-18.94,5.06,-0.97,-2.99,-1.65
8010,-4.75,-21.87,6.56,-1.14,-3.43,-2.33
8020,-3.69,-15.56,4.5,-1.14,-3.43,-2.33
8030,-10.88,-8.75,3.06,-1.36,-3.93,-2.86
8040,-21.62,-8.75,3.87,-2.04,-4.86,-2.47
8050,-26.44,-15.19,11.75,-1.85,-4.38,-2.08
8060,-20,-26.12,27.81,-1.51,-3.7,-1.97
8070,-2.5,-38.88,45.44,-1.51,-3.7,-1.97
8080,14.5,-50,57,-1.12,-2.65,-1.98
8090,14.81,-58.13,63.63,-0.72,-1.96,-1.15
8100,-0.31,-61.25,66.62,-0.7,-1.86,-0.51
8110,-16.06,-59.81,65.94,-0.75,-1.88,-0.03
8120,-20.62,-56.06,63.31,-0.75,-1.88,-0.03
8130,-15.25,-52.5,62.44,-0.89,-1.86,-0.05
8140,-7.94,-50.75,65.81,-0.5,-0.75,-1.05
8150,-3,-48.06,73.37,-0.19,-0.32,-1.38
8160,-2.25,-48.44,81.81,0,-0.15,-1.58
8170,-3.62,-50.88,84.37,0,-0.15,-1.58
8180,-6.69,-56,82.81,-0.03,0.02,-1.52
8190,-10.38,-62.44,80.06,0.73,-0.55,-0.55
8200,-15.63,-73.75,72.12,0.73,-0.97,0.25
8210,-20.56,-87.31,64.25,0.59,-1.17,1.28
8220,-19.37,-94.56,63.94,0.59,-1.17,1.28
8230,-7.5,-94.62,68.87,0.9,-0.51,2.87
8240,16.69,-92.56,77.25,1.64,0.72,2.64
8250,45.88,-82.56,82.94,1.64,0.72,2.64
8260,66.25,-68.37,79.69,1.57,1.13,2.42
8270,71.87,-52.69,72.06,1.89,1.85,1.77
8280,64.69,-34.44,62.69,1.75,2.11,1.7
8290,49.56,-17.69,53.25,1.33,2.39,1.53
8300,34.19,2.56,45.75,0.67,3.17,0.04
8310,25.31,21.56,39.19,0.45,3.39,-0.93
8320,22.44,29.87,30.94,0.57,3.49,-1.66
8330,26.56,-24,13.38,0.69,3.68,-1.58
8340,26.56,-24,13.38,1.02,4.08,0.74
8350,31.56,-54,7.75,1.15,4.36,2.02
8360,34.06,-68.44,2.62,1.19,4.47,2.51
8370,36.5,-69.81,-7.06,1.84,4.54,2.17
8380,15.69,-11.13,-46.38,1.17,3.42,2.77
8390,15.69,-11.13,-46.38,0.94,2.81,2.15
8400,6.81,58.06,-69.37,0.75,2.11,1
8410,7.19,75.25,-72.5,0.48,0.86,-0.54
8420,4.62,89.12,-69.75,0.45,0.5,-0.99
8430,-2.44,76.69,-64.87,0.59,0.37,-2.27
8440,-14.69,50.13,-60.75,0.88,0.19,-2.51
8450,-18.31,25.56,-56.5,1.2,-0.21,-1.79
8460,-12.56,5.87,-52.38,1.3,-0.33,-0.9
8470,-5.31,0.13,-49.69,1.43,-0.38,-0.28
8480,-2.44,5.94,-47.94,1.56,-0.46,0.06
8490,-5.62,15.06,-48.25,1.57,-1.02,-0.25
8500,-14.44,23.19,-46.38,1.29,-1.35,-0.48
8510,-25.06,28.69,-40.88,1.13,-1.58,-0.59
8520,-31.69,30.06,-34.19,0.92,-1.7,-0.74
8530,-33.75,28.12,-29.31,0.78,-1.67,-0.68
8540,-34.13,25.06,-26.94,0.67,-1.64,-0.59
8550,-36.31,24.06,-28,0.64,-1.73,-0.58
8560,-40.81,25.37,-28.75,0.44,-2.2,0
8570,-39.38,30.19,-27.5,0.51,-2.12,0.64
8580,-26.25,40.75,-27.37,0.53,-2.05,0.67
8590,-12.38,53.56,-28.81,0.43,-2.16,-0.03
8600,-15.63,67.25,-30.12,-0.08,-2.79,-2.64
8610,-42.81,78.87,-28.69,-0.3,-3.11,-3.6
8620,-78.44,81.56,-23.56,-0.48,-3.4,-4.12
8630,-100.37,62.06,-15.63,-0.51,-3.59,-4.35
8640,-94,31.81,-4.62,-0.74,-3.71,-3.31
8650,-66.94,0.75,8.94,-0.61,-3.22,-2.2
8660,-34.75,-17.94,18.69,-0.34,-2.52,-1.13
8670,-10.94,-22.19,21.31,0.13,-1.19,-0.43
8680,-3.12,-14,15.94,0.44,-0.73,-0.52
8690,-9.63,0.94,3.81,0.59,-0.56,-0.7
8700,-24.31,15.31,-10.31,0.61,-0.89,-0.99
8710,-36.81,24.12,-18.87,0.22,-2.05,-1.44
8720,-38.56,24.69,-19.25,0.24,-2.36,-1.51
8730,-28,17.62,-14.81,0.3,-2.45,-1.64
8740,-12.06,6,-8.5,0.54,-2.34,-1.59
8750,0.75,-3.62,-4.25,1.5,-1.28,-0.89
8760,8.56,-6.62,-7,2.09,-0.78,-0.37
8770,13.5,-1.56,-16.81,2.58,-0.53,0.01
8780,16.31,7.81,-31.31,2.94,-1.59,-0.57
8790,13.31,15.25,-42.25,2.71,-2.49,-1.09
8800,6.31,15.13,-43.31,2.58,-3.12,-1.26
8810,1.06,9.75,-34,2.59,-3.52,-1.2
8820,-0.88,3.94,-17.44,2.9,-3.07,-0.84
8830,-1,-1.81,-1.81,3.31,-2.27,-0.3
8840,3.25,-3.81,4.56,3.58,-1.53,0.18
8850,11.56,-2.69,1.94,3.67,-0.94,0.46
8860,21.62,1.56,-8.25,3.42,-0.47,0.97
8870,33.19,7.06,-23.19,3,-0.75,1.11
8880,46.75,11.13,-36.25,2.43,-1.38,1.17
8890,59.13,13.13,-40.38,1.97,-1.99,1
8900,66.94,16.37,-38.38,1.11,-2.71,1.22
8910,73.56,25.06,-31.62,0.38,-3.07,1.15
8920,75.31,40.25,-13.75,-0.1,-3.06,0.73
8930,68.94,58,9.38,0.06,-1.96,-1.05
8940,56.19,70.25,29.12,0.42,-1.28,-1.91
8950,40,67.87,40.56,0.63,-0.8,-2.85
8960,18.25,45.63,43.13,0.21,-0.44,-3.32
8970,-6.87,19.56,38.38,0.24,-0.55,-2.48
8980,-29.94,0.88,34.31,-0.24,-0.61,-0.96
8990,-46.06,4.06,29,-1.18,-0.86,0.28
9000,-46.56,30.12,27.81,-2.25,-1.35,0.71
9010,-32.25,62.44,38.44,-2.38,-0.87,-0.7
9020,-6,83.19,52.19,-1.59,-0.14,-1.83
9030,20.62,83.5,56.5,-1.21,0.6,-3.11
9040,31.31,68.37,45.38,-1.11,0.94,-4.23
9050,21.75,44.19,26.62,-1.03,0.68,-5.61
9060,-2.69,12.13,5.81,-1.24,-0.07,-5.08
9070,-30.19,-18.81,-12.06,-1.65,-1.12,-3.63
9080,-48.06,-37.63,-18.94,-2.67,-2.7,-0.48
9090,-48.38,-44.44,-14.31,-3.24,-3.11,0.93
9100,-28.56,-37.38,3.19,-3.3,-2.96,1.76
9110,4.31,-20.37,25.62,-3.08,-2.32,2.03
9120,34.81,-1.81,41,-2.1,-0.75,0.42
9130,46.31,10.5,44.25,-1.74,-0.2,-0.52
9140,34.63,15.63,37.69,-1.57,0.16,-1.02
9150,10.13,14.69,23.37,-1.48,0.2,-1.23
9160,-14.69,10.06,8.44,-2.04,-0.62,-0.81
9170,-29.31,3.87,1.31,-2.21,-1.02,-0.52
9180,-28.31,-4,2,-2.44,-1.16,-0.31
9190,-13.75,-15.69,9.94,-2.13,-0.39,-0.13
9200,5,-30.81,18.37,-1.91,0.08,-0.23
9210,13.81,-45.44,19.31,-1.99,0.36,-0.38
9220,3,-52.25,13.5,-2.3,0.52,-0.26
9230,-24.06,-43.13,2.5,-2.85,0.22,0.17
9240,-53.94,-21.44,-9.81,-3.29,-0.09,0.18
9250,-75.5,6.19,-19.81,-3.36,-0.48,-0.14
9260,-83,31.31,-24.81,-3.73,-0.8,-0.61
9270,-74.44,48.44,-21.75,-4.01,-0.57,-1.72
9280,-48.69,55.31,-16.94,-3.57,-0.3,-2.72
9290,-15.13,45.06,-17.69,-3.1,-0.13,-3.73
9300,10.06,22,-27.06,-2.81,-0.26,-4.6
9310,17.12,-4.5,-40.06,-2.69,-1.64,-5.26
9320,6.5,-28.87,-48.38,-2.84,-2.45,-4.9
9330,-11.25,-45.75,-47.31,-3.1,-3.09,-4.33
9340,-24.94,-51.88,-35.06,-2.55,-3.33,-3.6
9350,-26.5,-53.63,-18.81,-2.1,-3.14,-3.71
9360,-17.81,-60.25,-5.37,-1.74,-2.96,-3.99
9370,-5.69,-75.44,4.69,-1.3,-2.85,-4.2
9380,5.12,-101,13.94,-0.33,-2.16,-3.13
9390,14.63,-129.06,19.44,0.11,-1.89,-2.36
9400,23.44,-151.81,19.69,0.4,-1.69,-1.5
9410,30.19,-163.69,15.56,0.6,-1.64,-0.71
9420,33.44,-159.94,8.19,0.62,-1.81,0.79
9430,34.19,-140.56,0.06,0.7,-2.11,1.02
9440,33.5,-114.19,-4.87,0.76,-2.4,0.97
9450,32.31,-89.75,-4.31,0.7,-2.81,0.96
9460,31.81,-71.44,0.88,0.74,-2.8,0.96
9470,34.63,-61.63,10.56,0.91,-2.51,1.15
9480,43.94,-58.44,20.12,1.15,-2.04,1.5
9490,61.44,-56.13,26.5,1.53,-0.87,2.51
9500,86.44,-47.63,26,1.33,-0.69,2.53
9510,108.56,-26.87,21.12,1.53,-0.54,1.81
9520,111.12,2.56,12.69,1.89,-0.49,0.39
9530,85.69,22.94,1.44,1.58,-1.73,-1.82
9540,39.19,28.25,-3.12,1.08,-2.46,-1.9
9550,-9.81,26.06,8.19,0.98,-2.69,-1.55
9560,-40.38,19,31.5,1.15,-2.25,-0.9
9570,-40.13,9.56,55.13,1.63,-0.43,0.54
9580,-13.44,2.5,73.94,2.2,0.61,0.62
9590,23.19,-4.31,82.31,2.73,1.7,0.35
9600,50.63,-13.81,74.69,3.34,2.93,-0.22
9610,56.06,-23.31,54.13,3.18,2.93,-0.12
9620,39.63,-28.25,29.5,2.93,2.6,0.23
9630,10.13,-24.31,7.19,2.56,2.08,0.8
9640,-18.31,-7,-7.69,1.61,1.11,1.68
9650,-33.25,16,-12.13,1.52,1.07,1.61
9660,-30.12,34.56,-9.44,1.48,1.28,1.22
9670,-12.31,41.88,-6.62,1.53,1.52,0.7
9680,6.69,39.13,-6.31,1.54,1.9,-0.22
9690,15.81,32.69,-11.13,1.59,1.91,-0.4
9700,12.13,25.44,-18.31,1.43,1.81,-0.42
9710,-1,21.75,-25.44,1.06,1.31,0.3
9720,-17.37,25.37,-31.12,0.83,1.02,0.56
9730,-30.87,35.31,-34.81,0.61,0.76,0.67
9740,-37.38,46.13,-35.75,0.4,0.65,0.69
9750,-34.19,54.44,-34.13,0.22,0.73,0.22
9760,-23.37,58.63,-32.69,0.19,0.9,-0.05
9770,-10.25,58.38,-32.56,0.23,1.07,-0.34
9780,-1.06,54.38,-34,0.33,1.28,-0.4
9790,2.56,49.94,-38.63,0.35,1.58,-0.33
9800,2.75,48.63,-45.94,0.4,1.63,-0.26
9810,2.25,50.88,-56,0.33,1.53,-0.26
9820,0,56.31,-68.31,0.27,1.3,-0.28
9830,-5,65.5,-81.31,0.04,0.51,-0.65
9840,-10.81,76.69,-92.37,0.04,0.2,-0.87
9850,-14.38,86,-101.5,0.07,-0.17,-1.19
9860,-14.94,88.19,-109.87,-0.07,-1.32,-1.71
9870,-13.81,83.31,-115.31,-0.24,-1.92,-1.78
9880,-13.81,83.31,-115.31,-0.41,-2.52,-1.9
9890,-14.06,69.62,-110,-0.53,-3.03,-2.02
9900,-18.62,62.75,-97.81,-0.97,-3.91,-2.37
9910,-25.37,55.88,-79.62,-0.99,-4.01,-2.42
9920,-30.81,47.69,-55.44,-0.96,-3.83,-2.47
9930,-30.81,47.69,-55.44,-1.07,-3.32,-2.32
9940,-31.81,37.06,-29,0.09,-1.62,-2.41
9950,-17.81,13.25,9.31,0.41,-0.72,-2.07
9960,-5.87,-2.75,9.31,0.69,-0.38,-1.72
9970,2.69,-12.94,-2.81,0.32,-1.11,-1.46
9980,2.69,-12.94,-2.81,0.19,-1.72,-1.52
9990,-2.81,-12.44,-16.25,-0.08,-2.25,-1.44
10000,-42.25,0.31,-27.44,-0.09,-2.59,-1.17