timestamp,gyrox,gyroy,gyroz,accx,accy,accz
10,14.94,78.62,111.12,0.92,1.54,-1.16
20,14.31,64.06,83.31,0.89,1.41,-1.81
30,8.06,39.19,54.63,0.78,1.02,-2.16
40,2.94,13.06,30.69,0.23,-0.55,-0.84
50,3.06,-0.56,14.5,-0.67,-1.76,0.28
60,9.13,9.69,18.81,-1.34,-2.64,0.97
70,21.19,32.13,37.44,-0.63,-2.37,0.12
80,33.31,48.56,49.19,-0.24,-2.36,-0.9
90,37.69,50.06,52.5,-0.25,-2.75,-1.72
100,29.62,37.56,60.06,-0.78,-3.1,-2.33
110,11.38,9.88,76.5,-0.5,-2.89,-2.42
120,-10.5,-21.44,98.31,-0.32,-2.17,-1.34
130,-19.37,-43,120.94,0.03,-1.05,-0.3
140,-8.13,-54,135.87,0.5,0.18,0.44
150,11.38,-54.13,136.5,1.18,2.12,0.96
160,27.5,-38.81,125.44,1.36,2.64,0.77
170,37.19,-16.87,110.81,1.41,3.2,0.31
180,42.94,-2.19,93.44,1.41,4.23,-1.14
190,42.25,3,74.69,1.38,4.44,-1.93
200,31.56,-2.31,59.19,1.62,4.75,-2.55
210,13,-17.19,42.38,1.86,4.98,-2.58
220,-2.44,-34,26.37,1.9,5.3,-1.6
230,-11.13,-46.69,13.25,1.65,5.52,-0.73
240,-10.81,-44.44,3.81,1.93,6.14,-0.42
250,-1.37,-35.19,-7.06,2.41,7.01,-0.66
260,7.12,-31.44,-29.19,3.13,7.56,-1.97
270,1.5,-36.94,-60.63,2.91,6.88,-2.03
280,-16.87,-46.5,-91.62,2.61,5.44,-1.51
290,-35.44,-54.19,-106.5,2.65,4.25,-0.81
300,-45.56,-58.63,-110.37,2.41,2.57,1.11
310,-45.81,-52.06,-106.25,2.52,2.4,1.86
320,-36.88,-36.88,-101.19,2.81,2.61,2.33
330,-25.12,-17.62,-102.44,2.8,2.41,1.59
340,-20.44,1.06,-108.37,2.71,2.09,0.52
350,-26.94,13.19,-114.62,2.57,1.7,-0.3
360,-36.75,18.31,-120.5,2.19,1.23,-0.66
370,-42.63,17.5,-124.69,1.37,-0.17,-1.3
380,-46,12.06,-124.06,1.33,-0.64,-1.53
390,-47.38,-0.81,-118.69,1.34,-0.97,-1.36
400,-42.5,-19.31,-113.06,1.53,-1.25,-0.7
410,-32.31,-34.75,-109.31,1.3,-2.29,0.73
420,-26.37,-41.13,-104.31,1.26,-2.69,1.27
430,-27.56,-33.5,-97.31,1.1,-3.07,1.78
440,-29.31,-12.69,-87.56,0.75,-3.73,1.88
450,-29.25,17,-74.37,0.88,-3.9,1.25
460,-33.88,44.19,-62.44,0.79,-3.96,0.55
470,-43.88,70.19,-52.44,0.62,-3.86,-0.29
480,-55.38,94.56,-43.56,0.72,-3.32,-2.22
490,-60.63,105.06,-38.88,0.86,-3.31,-3.43
500,-59.44,88.62,-42.63,1.03,-3.8,-4.48
510,-62.56,58.94,-47.88,0.65,-4.72,-5.04
520,-69.87,27.81,-44.44,0.24,-6.21,-3.63
530,-69.56,1,-30,0.27,-6.4,-2.43
540,-57.94,-16,-9.19,0.54,-6.16,-1.44
550,-40.63,-22.69,11.94,0.99,-5.61,-0.84
560,-27,-19.37,29.06,2.25,-3.79,-0.37
570,-16.62,-12.81,39.13,3.03,-2.83,-0.31
580,-3.87,-8.75,40.19,3.7,-2.04,-0.23
590,12.69,-8.81,35.31,4.7,-0.9,-0.33
600,27.44,-12.31,28,5.06,-0.42,-0.46
610,34,-15.56,18.12,5.48,-0.13,-0.68
620,32.38,-22.5,3.44,6,0.21,-0.65
630,27.06,-33.06,-20.12,5.8,-0.86,0.25
640,23.62,-44.63,-39.75,5.86,-1.34,1
650,21.75,-49.19,-53.38,5.27,-2.11,2.03
660,25.75,-43.81,-61.06,4.3,-3.02,3.16
670,25.75,-43.81,-61.06,3.21,-3.03,4.1
680,48.69,8.06,-30.69,2.94,-1.95,4.12
690,66.87,54.63,-11.88,2.63,-0.87,3.26
700,73.94,100,-1.37,2.22,0.87,0.44
710,58.44,144.06,3.75,2.05,1.62,-0.29
720,31.62,191.19,-4.06,1.72,1.31,-2.44
730,-0.88,207.81,-21.56,0.9,0.58,-3.58
740,-18.37,193.75,-31.94,-1.25,-0.86,-5.56
750,-9.5,173.87,-26.81,-1.59,-0.66,-6.82
760,7.62,140.12,-10.94,-2.8,-0.07,-7.45
770,7.62,140.12,-10.94,-1.1,0.44,-8.13
780,11.31,96.81,-0.62,-0.24,0.54,-4.46
790,-29.19,10.31,-28.75,-1.62,-1.34,-1.95
800,-58.13,5.25,-41.69,-2.48,-2.88,-0.03
810,-83.75,36.56,-26.5,-3.84,-3.23,1.69
820,-83.75,36.56,-26.5,-2.8,-2.56,-0.71
830,-79.56,90.44,-5.62,-3.11,-2.37,-2.14
840,-24.37,95,8.31,-3.28,-1.77,-2.99
850,-19.69,70.12,7.5,-3.9,-1.12,-1.15
860,-11,47.31,3.25,-4,-1.02,-0.44
870,-11,47.31,3.25,-4.1,-0.77,0.08
880,3.5,34.5,1.44,-3.89,-0.61,0.42
890,-2.5,42.13,-5.94,-4.62,-1.28,0.44
900,-15.13,58.38,-8.44,-4.92,-1.41,-0.35
910,-23.81,68.5,-3.5,-5.22,-1.43,-1.01
920,-23.81,68.5,-3.5,-5.22,-1.43,-1.01
930,-25.44,63.94,4.56,-5.43,-1.24,-1.53
940,-15.13,32.31,18.06,-4.96,1.03,-1.75
950,-14.56,23.12,12.13,-4.99,1.51,-1.84
960,-17.81,18.75,-2.12,-4.79,1.27,-2.79
970,-17.81,18.75,-2.12,-4.79,1.27,-2.79
980,-23.81,17.44,-23.25,-4.78,0.18,-3.54
990,-36.5,-4.62,-63.25,-5.15,-3.27,-4.22
1000,-36.75,-27.06,-64.31,-5.63,-6.12,-3.38
1010,-28.25,-51.38,-46.38,-5.65,-6.37,-2.75
1020,-28.25,-51.38,-46.38,-5.65,-6.37,-2.75
1030,-11.94,-71.31,-11.81,-5.22,-5.61,-2.38
1040,1.31,-80.87,50.44,-2.24,-0.99,-3.63
1050,-16.81,-79,48.88,-1.69,-1.08,-4
1060,-45.13,-82.62,31.44,-1.48,-2.07,-3.87
1070,-45.13,-82.62,31.44,-1.48,-2.07,-3.87
1080,-64.69,-93.37,16.19,-1.44,-3.33,-3.29
1090,-42.69,-121.12,20.69,-0.93,-5.08,-1.61
1100,-20.87,-134,33,-0.58,-5.08,-1.2
1110,-8.38,-138.75,49.31,0.52,-3.9,0.13
1120,-8.38,-138.75,49.31,0.52,-3.9,0.13
1130,1.06,-136.19,64.12,1.12,-3.26,0.25
1140,10.38,-129.56,72.69,2.05,-2.64,-0.05
1150,13.25,-119.75,73.06,2.28,-3.18,0.02
1160,7.56,-107.87,67.87,2.09,-3.61,0.26
1170,1.62,-98.56,62,2.09,-3.61,0.26
1180,4.81,-95.94,62.38,2.11,-3.79,0.64
1190,22.12,-99.12,71.62,2.75,-2.48,1.81
1200,47.25,-103.69,81.81,2.93,-1.9,2.04
1210,69.31,-99.56,89.62,3.07,-1.49,1.81
1220,85.69,-79.37,93.44,3.07,-1.49,1.81
1230,96.94,-56.88,93.94,2.88,-0.49,-0.09
1240,97,-36.06,98.56,3.47,1.13,-0.96
1250,84.5,-28.69,103.81,3.37,1.71,-0.45
1260,67,-34.06,101.87,3.17,2.45,0.93
1270,55,-41.25,94.69,3.17,2.45,0.93
1280,52.06,-42.38,85.25,3.03,2.89,1.4
1290,56.44,-36,78.06,3.11,4.52,1.19
1300,65.94,-22.81,71.94,3.55,5.45,0.08
1310,71.62,-7.62,57.31,3.47,5.13,-0.25
1320,69.06,1.25,31.94,3.47,5.13,-0.25
1330,58.25,2.5,1.87,3.06,4.11,-0.31
1340,42.56,-0.13,-22.19,1.42,1.48,0.49
1350,25.94,-0.75,-28.37,1.36,2.12,0.52
1360,11.06,5.25,-16.69,1.66,3.2,0.39
1370,1.81,12.81,0.5,1.66,3.2,0.39
1380,0.19,18.69,10.81,2.01,5.15,0.48
1390,6.19,21.87,10.56,2.58,6.29,0.04
1400,18,24.12,0.88,2.55,6.29,-0.31
1410,26.37,26.5,-17.5,1.98,4.7,-0.69
1420,24.06,27.75,-41.81,1.98,4.7,-0.69
1430,10.94,28.44,-63.75,1.42,3.66,-0.38
1440,-4.75,30,-76.44,0.45,2.13,-0.23
1450,-15.13,33.75,-78.56,-0.05,1.89,-0.55
1460,-21.44,37.63,-70.75,0.03,2.48,-0.71
1470,-26.5,40.31,-57.44,0.03,2.48,-0.71
1480,-29.62,41,-44.81,0.23,3.1,-0.92
1490,-32.88,38.19,-39.75,1.06,4.18,-0.22
1500,-36.81,35.19,-42.94,1.1,3.93,-0.02
1510,-36.69,34.44,-54.06,1.07,3.37,-0.08
1520,-34.69,38.63,-69.44,1.07,3.37,-0.08
1530,-36,53.88,-95.75,0.95,1.95,-0.39
1540,-36,53.88,-95.75,0.6,0.39,-0.75
1550,-38.13,60.81,-104.5,0.58,-0.2,-0.98
1560,-43.56,75.69,-104.37,0.63,-0.93,-1.73
1570,-45.56,77.37,-97.69,0.63,-0.93,-1.73
1580,-47.88,75.5,-92.12,0.65,-1.12,-2.07
1590,-50.06,69.06,-88.06,0.75,-1.31,-2.8
1600,-48.63,57.56,-85.31,0.77,-1.7,-3.42
1610,-47.13,42.56,-84.62,0.71,-2.1,-3.44
1620,-51,25.5,-86.62,0.71,-2.1,-3.44
1630,-57.56,8.88,-87.87,0.6,-2.54,-3.1
1640,-61.25,-4.87,-88,0.21,-4.22,-1.46
1650,-62,-14.88,-85.12,0.06,-4.64,-0.8
1660,-62.25,-21.19,-77.12,0.06,-4.64,-0.8
1670,-61.88,-22.31,-65.31,-0.01,-4.9,-0.24
1680,-62.81,-14.75,-53.69,-0.14,-5.35,0.09
1690,-63.06,-4.06,-42.56,-0.25,-5.5,0.07
1700,-59.5,5.56,-31.56,-0.39,-5.61,-0.09
1710,-52.38,11.25,-18.44,-0.7,-5.77,-0.37
1720,-37.31,10.19,-2,-0.52,-4.83,-0.76
1730,-14.81,5.31,8,-0.25,-4.04,-1.09
1740,4.25,-1.25,9.31,-0.14,-3.58,-1.32
1750,16.06,-6.06,9.13,0.06,-2.8,-1.66
1760,21.56,-9.94,8.31,0.11,-2.5,-1.98
1770,16.5,-13.38,6.19,0.11,-2.4,-2.25
1780,1.31,-16.19,4.31,0.1,-2.41,-2.25
1790,-15.5,-17.75,3.12,-0.07,-2.75,-1.53
1800,-24.87,-16.44,3.37,-0.2,-2.97,-1.2
1810,-24.12,-13.19,4.62,-0.34,-3.16,-0.99
1820,-16.12,-9.56,6.06,-0.48,-3.38,-1.03
1830,-7.31,-7,7.87,-0.52,-3.47,-1.64
1840,0.69,-7.62,8.75,-0.7,-3.59,-1.97
1850,5.94,-10.38,11.75,-0.96,-3.72,-2.39
1860,4.94,-14.63,18,-1.09,-3.67,-2.95
1870,-5.62,-23.44,23.19,-0.92,-3.46,-4.29
1880,-29.81,-39.19,24.56,-1.04,-3.93,-4.43
1890,-61.06,-56,28.19,-1.34,-4.59,-3.63
1900,-80,-65.62,37.06,-1.84,-5.22,-1.08
1910,-75,-68.31,50,-2,-4.89,0.2
1920,-43.06,-65.75,63.13,-1.85,-3.89,1.06
1930,5.37,-58.69,66.31,-1.59,-2.71,1.07
1940,43.31,-53.5,56.81,-1.46,-1.66,-0.55
1950,54.56,-53.63,43.25,-1.68,-1.98,-1.1
1960,47.38,-58.25,34.25,-1.88,-2.56,-1.15
1970,36.94,-65.12,36.25,-1.88,-3.13,-0.95
1980,30.75,-74.31,45.38,-1.52,-3.36,-0.19
1990,26.62,-80.44,57.06,-1.37,-3.31,0.24
2000,23.06,-76.62,69.81,-1.17,-3.07,0.63
2010,24.06,-61.44,81.31,-0.86,-1.71,1.28
2020,39.44,-43.63,88.44,-0.5,-0.85,0.86
2030,65.87,-33.81,87.62,-0.16,-0.23,-0.11
2040,82.06,-35.63,79.62,0.15,0.21,-1.01
2050,80.31,-45.13,68.56,0.43,0.47,-1.36
2060,69.06,-56.5,59.44,0.32,0.26,-0.81
2070,58.81,-64.69,55.69,0.25,0,-0.31
2080,51.19,-67.25,58,0.31,-0.14,0.31
2090,43.69,-67.69,62.44,0.64,0.24,1.77
2100,38.25,-57.06,64.62,1,0.65,2.33
2110,36.81,-39.81,60.25,1.59,1.31,3.01
2120,51.88,-17.56,43.56,2.31,2.09,3.73
2130,82.44,17.44,14.25,2.3,1.74,2.07
2140,102,53.5,-11.63,2.07,0.72,0.1
2150,96.37,82.56,-20,1.83,0.04,-1.65
2160,68.31,81.69,-14.38,1.78,-0.27,-4.09
2170,36.81,64.12,-1.19,1.81,0.13,-4.58
2180,17.81,24.06,10,2.34,0.9,-4.19
2190,11.69,-19.25,9.56,2.39,1.58,-3.18
2200,14,-51.56,0.5,2.13,1.88,0.31
2210,27.69,-64.37,-6.31,1.89,2.09,1.77
2220,52.94,-61.69,-9.44,1.79,2.36,2.73
2230,75.75,-38.69,-11,1.74,2.7,2.79
2240,80.06,-3.44,-13.81,1.76,3.34,1.27
2250,62.81,28.75,-20.56,1.56,3.3,0.1
2260,36.38,48.31,-27,1.21,3.03,-0.72
2270,15.06,55.44,-28.69,0.48,2.58,-1.77
2280,1.31,52.38,-26.5,0.31,2.49,-2.11
2290,-7.56,42.38,-20.75,-0.28,2.63,-2.19
2300,-10.94,31.06,-13.88,0.06,3.05,-2.32
2310,-7.12,12.38,-11.75,0.24,3.7,-1.6
2320,-0.44,-6.37,-14.5,0.38,3.9,-0.68
2330,5.12,-16.69,-21.87,0.54,3.76,0.04
2340,7.69,-17.44,-31.87,0.43,3.23,0.58
2350,4.75,-9.19,-37.81,-0.09,1.94,0.69
2360,-4.19,2.81,-35.25,-0.45,1.51,0.42
2370,-17.81,14.31,-26.44,-0.9,1.2,-0.12
2380,-31.25,19.25,-10.44,-1.25,1.33,-0.54
2390,-37.56,15.63,7.69,-0.44,3.51,-0.51
2400,-31.69,3.31,17.37,0.12,4.7,-0.28
2410,-24.69,-7.31,13.25,0.78,5.63,0.17
2420,-21.25,-10.25,-3.56,1.79,6.44,1.53
2430,-14.19,-3.5,-30.75,2.01,6,1.55
2440,-9.88,13.19,-63.06,1.93,4.76,0.87
2450,-19.37,31,-89.94,1.78,3.29,0.05
2460,-37.06,43.94,-107.75,0.87,-0.05,-1.27
2470,-58.56,53.88,-117.12,0.42,-1.78,-2
2480,-85.87,61.38,-114.81,-0.04,-3.36,-2.51
2490,-111.37,65.12,-96.37,-0.48,-4.42,-2.65
2500,-118.94,52.25,-63.75,-0.4,-4.87,-2.86
2510,-101.37,28.75,-27.31,0.02,-4.18,-2.86
2520,-74.56,2.56,0.81,0.58,-3.08,-2.52
2530,-57.44,-16.44,13.38,1.32,-1.39,-1.47
2540,-53.94,-22.94,10.56,1.48,-1.16,-0.92
2550,-55.63,-19.94,-1.62,1.42,-1.39,-0.65
2560,-57.81,-10.81,-16.25,1.37,-2,-0.49
2570,-61.75,-1.81,-27.31,0.96,-3.66,-0.31
2580,-65.19,6.37,-31,0.69,-4.36,-0.27
2590,-62.31,14.44,-27.37,0.44,-4.98,-0.45
2600,-54.75,20,-16.19,0.23,-5.34,-0.89
2610,-48.38,20.75,2.44,0.43,-4.82,-1.48
2620,-44.13,17.06,22.56,0.78,-3.85,-1.26
2630,-37.63,14.69,36.63,1.03,-2.72,-1.04
2640,-26.87,15.06,40.75,1.39,-1.66,-1.04
2650,-15.31,15.25,34.44,2.06,-0.38,-1.53
2660,-7.12,12.69,19.81,2.2,-0.37,-1.79
2670,-6.62,10.38,4.12,2.32,-0.48,-1.96
2680,-12.75,8.44,-9.19,2.69,-1.23,-1.48
2690,-18.94,5.56,-20.62,2.65,-2.01,-1.14
2700,-22.19,4.81,-29.94,2.5,-2.9,-0.71
2710,-20.37,4.94,-32,2.35,-3.59,-0.24
2720,-8.75,3.69,-24.31,2.18,-3.86,0.33
2730,10.13,1.12,-12.31,1.95,-3.22,0.71
2740,31.44,1.75,0.56,2.37,-2.03,0.54
2750,47.44,4.5,6.56,2.93,-0.78,0.03
2760,50.13,4.56,-3.62,3.15,-0.08,-0.48
2770,39.69,6.19,-25.19,2.71,-0.74,-0.55
2780,24.81,11.31,-42.69,2.05,-1.69,-0.71
2790,13.69,16.81,-45.25,1.75,-2.48,-0.96
2800,12.75,14.38,-38.56,1.59,-2.79,-1
2810,14.88,4.87,-30.44,1.29,-3.17,-0.65
2820,10.56,-1.06,-16.56,1.21,-3.01,-0.01
2830,8.56,-0.81,1,1.46,-2.12,0.69
2840,12.94,3.94,13.94,1.51,-1.69,0.81
2850,17.81,11.19,24.25,1.56,-1.31,0.63
2860,16.5,22.94,31.87,1.37,-1.05,0.25
2870,5.44,39.06,39.94,1.25,-0.05,-1.2
2880,-7.94,55.38,46.69,1.37,0.56,-2.17
2890,-19,56.19,47.31,1.28,0.94,-3.08
2900,-28,34.06,39.13,1.35,1.2,-3.13
2910,-34,12.63,24.06,0.76,0.86,-1.24
2920,-26.25,-4.81,6.69,-0.43,0.3,-0.11
2930,-10.13,-12,-6.56,0.26,-0.45,0.44
2940,0.37,-2.75,-11.44,0.01,-1.14,1.54
2950,7.31,7.87,-12.56,-1.2,-1.85,2.01
2960,14.88,27.5,-12.13,-1.79,-2.23,1.85
2970,12.19,62.88,1.31,-1.68,-1.91,0.82
2980,-5.12,100,12.94,-1.98,-1.07,-0.67
2990,-13.81,121.62,18.12,-2.07,-0.53,-1.48
3000,2.19,123.19,19.37,-1.9,-0.29,-2.61
3010,25,114.44,13.13,-2.01,-0.34,-3.88
3020,33.94,93.87,6.25,-2.11,-0.51,-4.91
3030,28.56,66.37,1.31,-2.1,-0.54,-4.3
3040,23,35.69,-0.19,-2.14,-0.5,-3.27
3050,22.19,8.31,-3.75,-2.27,-1.18,-0.96
3060,18.87,-8.94,-8.5,-2.64,-1.19,0.58
3070,16.19,-16,-9.06,-2.78,-0.95,1.88
3080,25.12,-13.88,-5.87,-2.88,-0.39,3.02
3090,43.63,7.25,-2.25,-2.93,1.48,2.49
3100,60.69,45.25,-5.56,-2.6,2.06,0.93
3110,59,83.69,-20.44,-2.76,1.96,-0.6
3120,37.19,111.62,-45.5,-3,1.3,-2.04
3130,9.25,116.37,-68.87,-4.02,-0.76,-3.52
3140,-8.94,106.19,-83.62,-4.66,-1.97,-4.16
3150,-16.62,87.06,-86,-5.28,-3,-4.9
3160,-22.87,60.63,-73.25,-5.6,-3.42,-5.07
3170,-23,28.44,-50.06,-5.14,-2.73,-4.56
3180,-10.19,-2.87,-29.12,-4.68,-2.14,-4.38
3190,6,-28.56,-17,-4.45,-1.65,-4.32
3200,11.63,-47.25,-14.44,-3.72,-1.92,-4.16
3210,2.25,-61.13,-17.69,-3.8,-2.49,-3.73
3220,-12.44,-73.12,-19.75,-3.74,-3.14,-3.29
3230,-12.44,-73.12,-19.75,-3.62,-3.53,-2.8
3240,-22.81,-82.94,-14.63,-3.19,-3.14,-1.43
3250,-25.87,-98.62,13.69,-2.64,-2.56,-1
3260,-21.44,-100.62,24.56,-2.15,-2.07,-0.64
3270,-15.06,-100.19,25.44,-1.84,-1.79,-0.31
3280,-15.06,-100.19,25.44,-1.38,-2.24,0.26
3290,-7.87,-96.75,17.62,-1.14,-2.69,0.21
3300,9,-79.69,0.62,-1.06,-3.32,-0.05
3310,15.75,-71.56,-1.44,-0.67,-4.46,-0.78
3320,18.19,-64,5,-0.38,-4.76,-1.22
3330,18.19,-64,5,-0.1,-4.94,-1.58
3340,18.81,-60.75,17.81,0.17,-4.87,-1.74
3350,18.37,-66.75,57.25,1.32,-3.48,-1.55
3360,20,-74,77.81,1.87,-2.85,-1.23
3370,24.44,-81.81,90.19,2.35,-2.38,-0.95
3380,24.44,-81.81,90.19,2.73,-2.05,-0.74
3390,29.12,-88.31,96.12,3.28,-1.48,0.17
3400,35.94,-103.31,95.69,3.39,-1.5,0.66
3410,39.13,-109,91.56,3.36,-1.46,1.46
3420,44.5,-109.25,89.25,3.38,-1.32,2.12
3430,44.5,-109.25,89.25,3.53,-0.53,3.15
3440,65.94,-81.31,89.25,3.63,-0.07,3.1
3450,75.5,-49.56,85.12,3.72,0.29,2.64
3460,73.5,16.62,63.44,3.85,0.89,0.82
3470,60.88,31.75,51.38,3.98,1.02,-0.13
3480,60.88,31.75,51.38,3.98,1.02,-0.13
3490,39.69,29.19,38.56,4.08,1.02,-0.75
3500,-9.75,4.12,21.69,3.21,0.24,1.06
3510,-19,8.31,21.19,3.17,0.44,2.08
3520,-9.06,23.31,19.44,3.03,0.71,2.92
3530,-9.06,23.31,19.44,3.03,0.71,2.92
3540,16.87,47.44,15.5,3.1,1.28,3.09
3550,65.25,79.87,-19.94,3.8,2.17,-0.07
3560,60.38,77.56,-44.06,3.4,1.44,-1.21
3570,37.5,68.94,-56.56,1.51,-1.1,-1.94
3580,37.5,68.94,-56.56,1.51,-1.1,-1.94
3590,11.13,60.94,-47.88,0.6,-2.08,-1.62
3600,-8.88,62,36.25,-0.49,-1.56,-1.1
3610,6,58.56,83.87,0.29,2.07,-1.61
3620,25.87,48.31,115.37,0.93,4.04,-2.73
3630,25.87,48.31,115.37,0.93,4.04,-2.73
3640,35.06,25.31,123.12,1.82,5.95,-3.34
3650,35.56,-7.31,100.87,2.95,8.97,-1.68
3660,34.38,-45.56,54.63,2.17,8.04,-0.1
3670,29.87,-78.94,-1.56,1.24,6.58,1.46
3680,17.69,-87.5,-43.69,1.24,6.58,1.46
3690,1.81,-65.94,-59.25,0.22,5.28,2.73
3700,-7.75,-21.87,-54.38,-0.8,4.38,3.14
3710,-11.63,34.63,-39.25,-0.41,5.35,1.61
3720,-15.31,79.25,-28.94,0.37,6.89,-1.34
3730,-22,109.87,-32.69,0.37,6.89,-1.34
3740,-30.12,119,-53.38,0.78,7.23,-2.78
3750,-36.38,98.87,-90,0.6,5.63,-4
3760,-38.25,67.44,-130.62,-0.17,2,-3.32
3770,-39.69,32.56,-160.56,-0.4,0.62,-2.44
3780,-43.06,3.81,-174.56,-0.4,0.62,-2.44
3790,-46.13,-13.56,-175,-0.75,-0.73,-1.41
3800,-46.75,-17.62,-160.12,-1.61,-3.6,0.03
3810,-48.13,-10.38,-133.19,-1.46,-3.81,0.17
3820,-53.5,3.19,-99.12,-1.25,-3.77,0.24
3830,-55.25,18.5,-63.81,-1.25,-3.77,0.24
3840,-48.88,29.31,-31.94,-0.28,-2.94,-0.44
3850,-39.13,30.25,-8.56,0.56,-1.47,-0.71
3860,-29.87,26.56,3.81,0.94,-0.84,-0.83
3870,-22.56,22.69,5.19,1.31,-0.51,-0.81
3880,-20.37,17.87,-3.94,1.31,-0.51,-0.81
3890,-26.19,17.87,-21.12,1.04,-1.19,-0.88
3900,-42.31,25.19,-36.56,0.83,-2.69,-1.14
3910,-58.88,34.38,-48.81,0.4,-4.53,-1.73
3920,-65.94,40.44,-55.88,-0.07,-5.36,-2.23
3930,-67.69,39.44,-54.94,-0.07,-5.36,-2.23
3940,-67.19,31.31,-42.69,-0.54,-5.89,-2.49
3950,-61.31,17.94,-21.31,-0.01,-4.41,-2.36
3960,-48.13,0.44,3.25,0.53,-3.25,-2.37
3970,-36.5,-15.81,17.94,0.9,-2.6,-2.19
3980,-38.81,-25.37,15.75,0.9,-2.6,-2.19
3990,-52.5,-24.94,2.37,0.98,-2.02,-1.31
4000,-62.88,-17.75,-17.81,0.17,-3,-0.94
4010,-61.81,-6.37,-38.38,-0.27,-3.72,-1.05
4020,-51.56,3.44,-51.19,-1.1,-4.62,-1.37
4030,-32.13,9.06,-52.94,-1.1,-4.62,-1.37
4040,-2.06,8.5,-44.75,-1.29,-4.55,-1.8
4050,29.75,1,-32.56,-1.31,-4.19,-2.95
4060,49.88,-11.13,-20.62,-1.16,-3.85,-3.63
4070,50.19,-24.94,-12.81,-1.28,-4.16,-3.79
4080,28.25,-34.44,-11,-1.28,-4.16,-3.79
4090,-5.31,-41.31,-9.69,-1.49,-4.59,-3.33
4100,-29.94,-43.13,-4.87,-2.76,-5.99,-1.92
4110,-34.31,-40.5,8.88,-2.79,-5.43,-1.71
4120,-16.37,-39.69,31.87,-2.41,-4.39,-2.06
4130,16.31,-44.5,55.56,-2.41,-4.39,-2.06
4140,41.75,-55.75,70.75,-1.69,-2.53,-2.89
4150,45.25,-69.69,75.25,-1.32,-2.07,-2.72
4160,32.69,-82.62,72.31,-1.15,-1.86,-1.94
4170,20.19,-90.94,67.06,-0.97,-1.78,-0.83
4180,16.94,-90.94,62.88,-0.87,-1.52,1.04
4190,20,-75.62,59,-0.88,-1.42,1.43
4200,28.25,-47.25,55.19,-0.65,-1.06,1.36
4210,44.5,-22.87,47.88,-0.36,-0.72,0.57
4220,63.5,-13.63,38.44,-0.2,-0.82,-1.34
4230,75.31,-21.5,31,-0.23,-1.27,-1.92
4240,73.62,-39.31,30.31,-0.35,-1.89,-1.77
4250,65.37,-54.94,41.13,-0.33,-1.84,-0.11
4260,61.44,-63.69,61.44,0,-1.05,0.3
4270,62.88,-65.12,83.56,0.47,-0.22,0.18
4280,60.19,-66.75,102.37,1.22,0.75,-0.07
4290,50.06,-74.25,110.12,2.57,2.78,0.35
4300,38.88,-86.56,103.69,3.04,3.17,0.92
4310,32.75,-103.37,86.25,3.22,3.09,1.98
4320,38.31,-119.56,65.5,3.38,2.96,3.1
4330,52.69,-143.19,46.88,3.92,1.8,3.28
4340,55.13,-155.62,31.44,3.08,0.94,4.77
4350,35.88,-104.69,17.62,2.75,0.02,6.79
4360,35.44,-49.06,14.56,1.09,-1.82,8.54
4370,55.69,26.5,25.31,0.39,-1.92,6
4380,67.62,105.5,55.63,0.49,-0.81,3.19
4390,65.44,170.44,89.19,1.14,0.91,1.53
4400,73.25,221.62,108.87,2.17,4.27,-3.12
4410,76.37,233.31,108.06,3.16,5.55,-6.68
4420,45.63,161.31,87.31,3.15,6.15,-7.69
4430,12.75,94.31,51.19,2.86,6.28,-7.65
4440,4.31,20.25,14.25,1.86,4.88,-4.5
4450,13.81,-37.31,-12.56,1.58,4.02,-2.53
4460,26.62,-64.94,-22.5,1.01,3.59,-0.89
4470,37.69,-61.81,-18.87,1.29,3.94,0.02
4480,47.25,-37.94,-18.5,2.16,4.93,-1.27
4490,40.94,-12.19,-31.56,2.3,4.5,-3.03
4500,6.37,0.37,-51.44,2.18,3.63,-4.19
4510,-43.06,0.13,-71.12,1.44,0.66,-3.96
4520,-82.37,-8.88,-84.62,0.91,-0.75,-3.13
4530,-95.37,-26,-83.12,0.62,-1.68,-1.89
4540,-75.19,-50,-64.94,0.62,-1.74,-0.27
4550,-29,-72.12,-40,1.42,-0.18,2.21
4560,20.62,-85,-21.87,2.05,0.8,2.53
4570,49.94,-82.19,-18.37,2.37,1.32,2.32
4580,42.94,-57.94,-30.25,2.29,1.06,1.83
4590,-0.31,-17.25,-43.5,1.14,-0.74,0.96
4600,-54.13,18.69,-46,0.56,-1.55,0.9
4610,-87.5,42.88,-35,0.24,-1.82,0.89
4620,-91.44,54.38,-15.56,0.22,-0.94,0.84
4630,-72.87,50.75,2.25,0.48,0,0.95
4640,-39.38,39.75,10.56,0.58,0.81,0.8
4650,-7.37,35.19,6.62,0.82,1.28,0.21
4660,2.25,36.88,-7.87,0.31,-0.01,-1.81
4670,-21.44,41.19,-25.69,-0.34,-1.27,-1.83
4680,-63,50.75,-31.31,-0.79,-2.08,-1.33
4690,-88.56,65.94,-23.81,-1.02,-2.41,-1.13
4700,-87.06,73.31,-10.13,-0.94,-2.17,-1.87
4710,-66.37,65.69,3.06,-0.74,-1.79,-2.58
4720,-41.88,42.5,11.75,-0.47,-1.38,-2.93
4730,-26.94,17.75,13.44,-0.26,-1.02,-2.64
4740,-21.94,-1.87,7.87,0.18,-0.92,-1.25
4750,-23.69,-10.56,-3.12,0.1,-1.38,-0.65
4760,-30.56,-4.56,-14.31,-0.03,-2.03,-0.46
4770,-38.5,6.62,-19.12,0.08,-3.02,-0.51
4780,-39.88,14.5,-17.12,0.11,-3.3,-0.72
4790,-33.94,18.12,-11.75,0.18,-3.42,-1.1
4800,-26,17.5,-3.44,0.36,-3.2,-1.51
4810,-18,11.13,6.81,1.49,-1.1,-1.65
4820,-7,-0.88,12.94,2.13,-0.17,-1.27
4830,6.12,-15.19,3.75,2.71,0.17,-0.75
4840,15.31,-26.69,-17.19,2.98,-0.03,-0.05
4850,16.12,-31.12,-42.63,2.88,-2.12,0.96
4860,10.06,-24.5,-63.75,2.67,-3.42,1.32
4870,2.56,-11.38,-70.87,2.28,-4.51,1.66
4880,2.06,5.87,-60.69,1.68,-5.22,1.74
4890,12.63,26.94,-34,1.95,-4.19,0.91
4900,31.06,43.19,-2.12,2.52,-2.63,-0.08
4910,46.38,43.63,19.44,2.95,-1.05,-0.78
4920,50.75,32.31,25.06,3.95,1.29,-1.21
4930,42.69,13.81,13.5,4.25,1.58,-0.35
4940,26.69,-4.75,-12.69,4.06,1,0.93
4950,11.13,-9.13,-43.38,3.68,-0.29,2.05
4960,0.56,7.19,-64.75,1.87,-2.96,2.96
4970,-1.44,41.81,-65.19,1.8,-3.12,2.13
4980,10.63,81.44,-48.5,1.53,-2.72,0.74
4990,27.06,109.37,-30.19,1.54,-2.06,-0.64
5000,37.25,115.94,-17.81,2.04,-0.9,-3.25
5010,38.25,95.81,-12.94,2.27,-0.66,-3.46
5020,31.25,61.19,-16.5,2.18,-0.77,-2.47
5030,23.5,33.94,-21.44,1.5,-1.44,-0.23
5040,19.44,27.56,-21.19,1.14,-1.7,-0.05
5050,10.56,47.38,-18.12,1.08,-1.71,-0.35
5060,-1,74.44,-13.44,0.68,-1.61,-1.04
5070,-6.75,95.81,-11,-0.45,-1.28,-3.34
5080,-6.06,100.37,-7.12,0,-0.77,-4.01
5090,3.56,88,-5.19,-0.03,-0.41,-4.44
5100,21.25,56.06,-11.56,0.12,-0.55,-3.82
5110,38.5,20.56,-24.62,-0.92,-2.93,-2.68
5120,31.94,4.56,-29.94,-1.58,-4.05,-2.02
5130,-3.37,8.44,-20.44,-2.25,-4.79,-1.35
5140,-38.25,24.37,4.75,-2.83,-3.9,-0.99
5150,-51.75,37.56,41.44,-2.29,-1.68,-0.94
5160,-34.44,37.56,78.06,-1.71,0.56,-0.93
5170,3.81,26.19,94.44,-0.89,2.52,-0.86
5180,42.94,10.44,84.87,-0.08,4.09,-0.93
5190,64.5,-3.94,46.88,-0.53,2.73,-0.48
5200,60,-12.06,-0.88,-1.57,0.59,0
5210,34.38,-8.75,-31.94,-2.73,-1.68,0.56
5220,0.56,5.56,-34.56,-5.14,-4.41,2.22
5230,-21.44,30.31,-7.5,-5.8,-3.94,1.92
5240,-23.87,64.37,38.38,-5.99,-2.26,0.37
5250,-15.44,90.44,81.37,-5.53,-0.08,-1.49
5260,-6.81,99.31,103.87,-4.74,3.38,-5.31
5270,-5.62,85,100.5,-4.6,4.32,-5.89
5280,-8.63,47.69,79.62,-4.15,5.14,-5.14
5290,0.94,0.06,48.63,-3.96,4.88,-2.96
5300,22.94,-39,8.56,-4.04,3.3,-2.51
5310,33.31,-60.81,-33.81,-4.28,1.05,-2.17
5320,18.81,-66.62,-67.19,-4.77,-1.26,-1.42
5330,-3.06,-62.88,-80.06,-5.35,-4.86,-0.1
5340,-11.19,-53.25,-68.87,-5.19,-5.44,-0.06
5350,-5.25,-43.38,-40.31,-4.87,-5.3,-0.27
5360,5.25,-31.94,-6.56,-4.3,-4.46,-1.22
5370,15,-21.94,19.06,-3.13,-2.83,-3.99
5380,17.44,-23.69,29.75,-2.73,-2.58,-4.71
5390,2.5,-64.31,29.37,-2.45,-2.52,-4.75
5400,2.5,-64.31,29.37,-1.7,-2.8,-3.33
5410,-4.69,-109.56,26.81,-1.69,-3.04,-2.26
5420,-9.5,-119.19,29.25,-1.58,-3.36,-0.9
5430,1.44,-122.37,32.88,-0.89,-3.29,0.23
5440,17,-118.62,35.06,-0.9,-3.55,1.25
5450,19.31,-102.87,39.25,-0.53,-3.59,1.2
5460,10.25,-82.75,42.44,-0.29,-3.68,1.19
5470,0,-63,48.06,-0.28,-3.78,1.31
5480,-2.12,-45.75,56.19,0.47,-2.53,0.67
5490,3.12,-37.31,58.19,0.98,-2.02,-0.02
5500,7.81,-39.56,53.94,1.35,-1.71,-0.55
5510,7.06,-45.13,46.5,1.58,-1.63,-0.67
5520,4.94,-47.38,40.5,1.56,-2.41,0.04
5530,8.88,-47.81,40.44,1.46,-2.83,0.36
5540,17.56,-45.94,47.56,1.1,-3.2,0.45
5550,28.37,-42.19,62.13,1.32,-2.48,0.83
5560,44.88,-38.69,75.37,1.64,-1.75,1.05
5570,65.31,-35.63,81.31,1.89,-1.22,1.13
5580,79.37,-32.06,81.69,2.13,-0.79,0.98
5590,80.94,-26.44,80.12,2.17,-0.32,0.8
5600,74.5,-16.62,82.12,2.17,0.14,0.82
5610,66.75,-3,83.19,2.28,0.66,0.69
5620,61.13,10,81.31,2.32,1.18,0.41
5630,58.31,18.62,80.69,2.23,2.62,-0.95
5640,53.88,18.94,79.75,2.6,3.57,-1.94
5650,43.5,1.56,68.69,3.08,4.36,-2.59
5660,30.37,-27.56,47.25,3.52,4.88,-1.46
5670,21.81,-51.88,25,3.32,4.62,-0.14
5680,19.31,-59.88,8.06,2.96,4.3,0.94
5690,20.31,-50.56,0,2.68,4.23,1.78
5700,23.25,-29.69,-5.12,2.87,4.87,2.05
5710,23.87,-6.56,-14.31,2.92,5.25,1.77
5720,21.75,14.88,-28,2.89,5.42,1.14
5730,14,31.31,-42,2.61,5.1,0.24
5740,14,31.31,-42,2.26,4.45,-1.05
5750,-0.25,41.25,-51,2.1,4.27,-1.35
5760,-10.19,37.44,-59.63,2.05,4.22,-1.59
5770,-6.75,25.12,-63.88,1.99,4.18,-1.78
5780,-9.44,13.19,-69.44,1.83,3.42,-1.31
5790,-16.5,5.44,-74.87,1.7,2.9,-0.66
5800,-16.5,5.44,-74.87,1.45,2.29,-0.05
5810,-29.69,2.87,-77.69,0.73,1.07,0.95
5820,-34.69,8.31,-73.75,0.51,0.73,1.51
5830,-36.44,19.19,-72.31,0.19,0.01,1.51
5840,-36.44,19.19,-72.31,-0.07,-0.9,1.35
5850,-36.81,30.87,-68.75,-0.57,-1.77,0.88
5860,-23.19,46.63,-32.06,-0.51,-1.43,0.4
5870,-12.88,49.88,-7.37,-0.11,-0.18,-0.13
5880,-5.69,50.31,7.5,0.54,1.38,-0.59
5890,-5.69,50.31,7.5,1.94,4.08,-2.07
5900,-5,51.5,4.37,2.34,4.39,-2.91
5910,-34.31,37.19,-55.25,2.52,3.7,-3.33
5920,-55,21.12,-89.44,1.66,0.02,-2.08
5930,-67.25,8.25,-109.12,1.07,-1.8,-1.37
5940,-67.25,8.25,-109.12,0.53,-3.35,-0.7
5950,-70.81,-0.88,-109.5,0.01,-4.31,0.22
5960,-52.88,-6.44,-58,-0.25,-3.65,1.86
5970,-28.94,3.87,-25.12,0.32,-2.12,1.73
5980,-11.25,18.44,-7.87,0.75,-0.68,0.8
5990,-11.25,18.44,-7.87,0.9,0.37,-0.24
6000,-17.56,32.63,-9,0.94,0.74,-1.51
6010,-65.56,48.81,-43.69,0.69,0.01,-1.81
6020,-74.31,45.25,-63.13,0.36,-0.98,-1.76
6030,-66.44,35.5,-73.87,-0.07,-1.98,-1.65
6040,-66.44,35.5,-73.87,-0.07,-1.98,-1.65
6050,-52,22.94,-73.44,-0.64,-3.8,-2.24
6060,-57.31,1.87,-56.25,-0.57,-4.7,-1.51
6070,-69.25,1.37,-51.44,-1.1,-6.69,-1.85
6080,-96.31,9.38,-45.13,-1.73,-7.6,-1.94
6090,-96.31,9.38,-45.13,-1.73,-7.6,-1.94
6100,-124.75,16.19,-28.12,-2.08,-8.14,-1.16
6110,-69.69,1.94,33.69,-1.18,-5.1,0.14
6120,-10.31,-5,50.44,-0.65,-3.59,-1.05
6130,16.37,-9.31,50.88,-0.41,-2.48,-2.02
6140,16.37,-9.31,50.88,-0.41,-2.48,-2.02
6150,6.87,-12.69,40.5,-0.12,-1.72,-2.61
6160,-22.94,-26.06,8.44,-0.15,-1.57,-0.91
6170,-23.12,-26.81,-1.56,-0.38,-2.02,-0.43
6180,-23.94,-18.87,-3.94,-0.65,-2.13,-0.01
6190,-23.94,-18.87,-3.94,-0.65,-2.13,-0.01
6200,-21.81,-6.75,-1.87,-0.66,-1.79,-0.49
6210,-14.31,2.62,-2.81,-0.81,-1.27,-2.6
6220,-13.31,4.75,-5.62,-0.89,-1.99,-2.78
6230,-21.87,-2.56,-13.88,-1.27,-3.09,-2.05
6240,-31.44,-14.63,-24.94,-1.27,-3.09,-2.05
6250,-33.75,-24.19,-27.19,-1.55,-3.95,-1.37
6260,-24.31,-29.37,-18.37,-1.6,-4.76,-1.16
6270,-13.13,-30.37,-4.12,-1.33,-4.56,-1.09
6280,-9,-27.06,8.94,-0.97,-4.48,-0.75
6290,-5.12,-22.56,14.13,-0.97,-4.48,-0.75
6300,13.63,-18.81,2.94,-0.3,-4.9,-0.4
6310,54.88,-15.69,-23.5,-0.5,-10.33,-1.94
6320,110.87,-14.94,-50,-3.42,-13.94,-3
6330,156.5,-27.37,-50.69,-4.04,-13.52,-2.24
6340,174.37,-50.94,35.56,-4.04,-13.52,-2.24
6350,170.75,-65.81,171.56,-2.57,-8.87,-1.19
6360,170.56,-58.5,298.25,1.13,0.73,-1.9
6370,176,-45,378.19,5.72,10.22,-2.49
6380,168.87,-31.06,384.62,5.84,12.1,-1.89
6390,150.06,-29.56,303.06,5.84,12.1,-1.89
6400,136.31,-34.44,176.56,5.15,11.56,-1.18
6410,128.12,-38.94,48.56,0.32,0.22,-0.76
6420,111.37,-39.63,-33.63,-0.85,-2.3,-0.54
6430,83,-37.75,-54.19,-1.3,-3.28,-0.19
6440,56.5,-33.81,-22.5,-1.3,-3.28,-0.19
6450,43.25,-31.19,33.44,0.01,-0.96,0.35
6460,43.94,-30.37,84.62,2.29,3.51,-0.11
6470,43.31,-32.44,108.44,3.01,5.04,0.32
6480,35.81,-34,97.75,2.92,5.01,1.26
6490,32.81,-34.06,59.25,2.92,5.01,1.26
6500,37.5,-30.62,13.38,2.35,3.42,1.18
6510,37,-23.56,-20.69,1.03,0.25,1.08
6520,27.69,-15.94,-33.44,-0.22,-0.84,0.92
6530,22.56,-9,-25.5,0.09,0.2,0.18
6540,25.37,-1.12,-0.62,0.09,0.2,0.18
6550,27.5,2.25,22.94,0.27,1.37,-0.58
6560,19.44,2.56,32.75,0.84,3.85,-0.72
6570,5.69,1,30.94,0.57,3.95,-0.53
6580,1.19,-1.25,18.81,0.25,3.78,-0.62
6590,5.94,-2,4.94,0.25,3.78,-0.62
6600,9.5,-2.69,-3.81,-0.06,3.48,-1.1
6610,4.69,-3.81,-7.25,-0.31,4.01,-1.12
6620,-1.5,-2.69,-7.69,-0.21,4.76,-1.64
6630,-3.81,0.13,-5.12,0.15,6.19,-2.81
6640,-9,1.94,-5.87,0.15,6.19,-2.81
6650,-18.75,-0.94,-13.44,0.37,6.5,-3.14
6660,-29.94,-11.69,-29.94,0.43,5.49,-1.98
6670,-37.75,-28.12,-49.94,0.45,4.07,0.49
6680,-38.75,-41.69,-64.06,0.57,3.76,1.26
6690,-34.88,-46.38,-70.56,0.57,3.76,1.26
6700,-29.94,-39.69,-74,0.4,3.5,1.6
6710,-30.31,-22,-75.12,0.45,2.84,0.25
6720,-40.88,-3.56,-72.69,0.6,2.79,-0.39
6730,-55.25,5.87,-70.62,0.6,2.63,-0.69
6740,-62.63,8.63,-69.94,0.59,2.44,-0.94
6750,-63.25,8.5,-68.87,1.06,2.19,-1.75
6760,-62.44,1,-69.25,1.38,2.06,-1.62
6770,-63.38,-11.5,-73.25,1.58,1.67,-0.99
6780,-64.19,-20.12,-80.87,1.64,1.04,-0.33
6790,-65.75,-20.19,-87.31,1.36,-0.52,0.4
6800,-68.56,-11.56,-89.31,1.07,-1.25,0.16
6810,-71.62,2.06,-84.94,0.85,-1.84,-0.54
6820,-78.19,12.94,-76,0.55,-2.81,-1.9
6830,-87.75,14.88,-64.56,0.58,-2.98,-1.82
6840,-94.5,6.37,-50.06,0.76,-2.92,-1.25
6850,-88.06,-5.69,-35.44,0.88,-2.63,-0.5
6860,-69.87,-13.63,-23.12,1.34,-1.39,0.11
6870,-53.69,-14.63,-16.06,1.75,-0.56,0.27
6880,-43.56,-11.31,-18.06,2.08,-0.14,0.19
6890,-39.88,-5.5,-31.94,2.1,-0.56,-0.11
6900,-49.19,1.37,-50.06,1.67,-2.49,-0.33
6910,-66.37,8.25,-63,1.49,-3.41,-0.08
6920,-76,12.5,-68.19,1.31,-4.26,0.04
6930,-73.94,14.06,-64.75,1.16,-4.88,0.02
6940,-67.62,15.63,-52.44,1.29,-5.23,0.25
6950,-58.88,18.12,-35.13,1.54,-4.86,0.14
6960,-48.38,22.25,-18.12,2.09,-4.02,-0.24
6970,-40.31,25.12,-6.06,3.41,-1.98,-1.23
6980,-39.75,25.5,-4.69,4.01,-1.53,-1.29
6990,-46.81,22.37,-14.81,4.16,-1.86,-0.95
7000,-56.44,19.94,-30.5,4.07,-2.76,-0.31
7010,-61.38,23.19,-42.44,3.5,-4.5,0.7
7020,-56.69,30.37,-46,3.05,-4.75,1.06
7030,-42.75,41.63,-39.63,3.03,-4.39,1.16
7040,-18.12,55.56,-28.37,3.41,-3.54,0.73
7050,11.13,64.06,-25.62,3.66,-2.75,-0.54
7060,30.62,66.62,-31,3.68,-2.72,-0.99
7070,34.69,67.56,-36.31,3.7,-2.72,-1.18
7080,30.12,68.19,-38.38,3.16,-3.22,-1.55
7090,22.19,68.06,-36.06,2.75,-3.19,-1.56
7100,10.81,65.56,-25.19,2.71,-2.47,-1.25
7110,1.44,60.56,-10.13,2.75,-1.42,-0.6
7120,5.69,54.81,-1.37,3.07,0.36,0.06
7130,21.75,48.69,-4,3.04,0.49,0.16
7140,32.81,46.56,-19,2.85,0.29,0.44
7150,31.81,50.94,-37.13,2.6,-0.45,0.5
7160,22.94,61.56,-50.38,1.1,-2.23,0.19
7170,11.13,75.44,-52,0.15,-2.74,-0.3
7180,-1.75,93.31,-42.06,-0.73,-3.06,-0.88
7190,-12.06,107.87,-22.44,-1.47,-2.93,-1.98
7200,-18.87,104.75,4.75,-2.08,-1.12,-3.41
7210,-21.56,89.19,31.5,-1.49,0.4,-3.57
7220,-18.81,60.88,47.25,-1.23,1.63,-2.9
7230,-15.88,31.75,41.81,-1.48,2.52,-1.14
7240,-13.56,18.12,22.75,-1.86,2.12,-0.93
7250,-18,20.37,-1.37,-2.64,1.08,-1.08
7260,-33.38,31.56,-22.37,-3.25,0,-1.29
7270,-51.81,42.56,-32.69,-4.21,-1.78,-1.87
7280,-60,49.81,-33.88,-4.42,-2.65,-2.45
7290,-59.13,48.56,-28.19,-4.97,-3.32,-2.61
7300,-42.94,18.19,7.19,-5.28,-3.38,-2.13
7310,-42.94,18.19,7.19,-5.13,-1.49,-0.44
7320,-15.69,0.44,26.44,-4.74,-0.7,-0.34
7330,7.69,4,27.44,-4.59,-0.19,-0.25
7340,0.37,17.81,17.87,-4.21,0.24,-0.33
7350,-4.81,23.87,6.44,-3.4,0.34,-1.53
7360,-7.56,18.06,-4.69,-2.99,0.04,-1.99
7370,-10.06,4.19,-13.19,-2.91,-0.55,-2.21
7380,-11.06,-8.13,-14.38,-2.91,-1.38,-1.57
7390,-10.63,-12.56,-11,-2.96,-1.67,-1.49
7400,-9.38,-11.63,-3.37,-2.96,-1.78,-1.8
7410,-7.25,-14.38,3.94,-2.49,-1.38,-2.07
7420,-2.62,-20.37,0.69,-1.52,-0.65,-2.01
7430,2.37,-24.44,-8.19,-1.51,-0.74,-1.97
7440,5.19,-25.75,-15.81,-1.27,-0.69,-2.26
7450,2.81,-27.37,-26,-1.15,-0.9,-2.75
7460,-9.69,-28.56,-36.25,-1.74,-2.74,-3.71
7470,-28.37,-29.75,-41.44,-1.91,-4.06,-4.17
7480,-40.19,-41.25,-35.56,-2.29,-5.39,-4.21
7490,-34.44,-60.56,-11.75,-2.8,-6.48,-2.84
7500,-8.5,-79,25.19,-2.18,-5.42,-2.24
7510,23.75,-90.44,54.69,-1.36,-3.91,-2.27
7520,36.94,-94.25,66.56,-0.65,-2.52,-2.8
7530,23.31,-94.25,60.69,0.32,-1.25,-3.03
7540,1.37,-94.87,46.31,0.53,-1.49,-2.43
7550,-7.25,-98.44,33.81,0.55,-2.19,-1.66
7560,1.5,-103.69,30.56,0.79,-2.97,-0.99
7570,22.5,-107.5,36.63,0.93,-3.55,0.63
7580,50.25,-107.56,49.19,1.38,-3.11,0.71
7590,71.87,-106.5,57.81,1.92,-2.69,0.57
7600,78.75,-103.81,61.19,2.24,-2.48,0.6
7610,71.12,-96.62,63.25,2.49,-2.58,1.37
7620,60.31,-86.06,67.81,2.56,-2.62,2.04
7630,57.75,-70.56,74.87,2.55,-2.7,2.57
7640,61.94,-52,85.81,2.21,-2.14,3.01
7650,71.75,-32.81,99.62,2.24,-1.21,2.99
7660,91.19,-19.56,111.37,2.13,0.09,3.03
7670,125.31,-17.69,117.56,2.51,1.66,3.11
7680,166.06,-26.31,113.25,3.67,5.07,3.06
7690,188.75,-34.44,91.31,3.95,5.97,2.51
7700,173.81,-40,55.38,4.21,6,1.33
7710,118.69,-27.62,14.06,4.01,5.34,1.12
7720,57.56,5.94,-14.94,1.9,2.56,3.43
7730,28.31,55.31,-24.25,0.79,1.22,3.55
7740,28.12,109.62,-11.75,-0.21,0.6,2.48
7750,36.5,174.12,12,-0.91,1.44,-1.88
7760,31.06,196.87,37.63,0.27,2.49,-5.66
7770,0.81,145.06,55.5,0.39,3.67,-6.96
7780,-3.19,73.69,63.25,0.7,5.01,-6.72
7790,21.62,-4.62,60,1.83,7.52,-4.22
7800,37.38,-64.12,41.13,2.45,8.11,-2.38
7810,29.25,-94,6.19,2.74,8.08,-0.28
7820,14.19,-95.44,-38,2.75,7.23,1.65
7830,-1.5,-66.37,-72.25,1.22,3.59,3.71
7840,-19.31,-14.38,-80.06,0.56,2.41,3.83
7850,-33.06,39.06,-65.81,0.56,2.34,3.27
7860,-32.88,79.25,-51.75,0.89,3,2.14
7870,-27.5,98.31,-49.44,1.5,4.07,-1.03
7880,-29.94,89.75,-58.63,1.51,4.1,-1.86
7890,-33.81,64.87,-72.81,1.43,3.79,-2.09
7900,-34.5,38.56,-86.06,0.94,2.42,-0.78
7910,-36.31,26.56,-95.06,0.96,1.98,-0.04
7920,-41,31.19,-102.25,0.86,1.51,0.27
7930,-46.06,43.69,-110.75,0.71,1.03,0.1
7940,-51.81,54.69,-119.75,0,-0.83,-0.84
7950,-58.13,62.69,-121.37,-0.13,-1.65,-1.17
7960,-62.69,66.31,-115.06,-0.31,-2.2,-1.3
7970,-60.63,61.38,-103.62,-0.23,-2.58,-1.35
7980,-50.38,53.44,-90.81,-0.04,-3.13,-1.93
7990,-43.31,45.44,-79.5,0,-3.29,-2.39
8000,-48.38,37.81,-69.94,0.03,-3.43,-2.7
8010,-59.69,29.94,-64.06,-0.06,-4.07,-2.66
8020,-67.12,20.12,-59.88,-0.25,-4.58,-2.42
8030,-68.37,10.69,-53.25,-0.6,-5.09,-2.02
8040,-62.56,2.94,-38.44,-1.06,-5.34,-1.54
8050,-47.38,-1.81,-16.25,-0.79,-4.02,-0.8
8060,-27,-2.25,-0.13,-0.53,-3.15,-1.27
8070,-16,0.19,4.12,-0.3,-2.47,-1.95
8080,-20.31,0.37,1,-0.23,-2.02,-2.39
8090,-30.81,-2,-6.12,-0.24,-1.73,-2.26
8100,-35.13,-6.37,-15.25,-0.48,-2.21,-2.12
8110,-34.88,-9.94,-24.25,-0.9,-3.03,-1.99
8120,-34.5,-9.44,-27.44,-1.23,-3.79,-1.85
8130,-29.87,-7.87,-24.87,-1.58,-4.57,-2.06
8140,-22.62,-7.81,-18.94,-1.82,-4.82,-2.39
8150,-17.69,-8.94,-9.38,-1.96,-4.76,-2.93
8160,-17.75,-11.94,-0.94,-1.87,-4.41,-3.83
8170,-19.87,-20.25,3.56,-1.98,-4.48,-4.11
8180,-24.31,-32.5,3.31,-2.16,-5.26,-4.42
8190,-34.38,-48.63,5.56,-2.46,-6.06,-4.04
8200,-38.75,-63.5,14.19,-2.96,-7.02,-2.03
8210,-26.12,-73.12,30.5,-3.17,-7.09,-1.44
8220,-1.12,-79.5,54.13,-2.87,-6.75,-1.22
8230,24.44,-87.87,77.69,-2.63,-6.01,-1.01
8240,40.88,-95,96.56,-1.95,-3.7,-0.5
8250,47.31,-99.12,107.37,-1.21,-2.88,-0.53
8260,43.94,-105.75,105.31,-0.95,-2.67,-0.2
8270,33.25,-111,100.31,-1.72,-2.69,1.66
8280,27.5,-98.37,103.81,-1.99,-2.13,2.3
8290,40.5,-67.25,116.25,-1.59,-0.93,1.51
8300,63.88,-41.63,124.87,-1.09,0.2,-0.34
8310,71.69,-39.25,122.37,-0.05,1.93,-3.21
8320,57.75,-59.94,111.5,0.4,2.26,-2.65
8330,42.31,-86.12,95.81,0.74,2.21,-1.27
8340,41.5,-109.44,79.87,1.16,1.88,0.14
8350,51.5,-115.44,67.12,1.53,1.58,2.67
8360,66,-106.94,56.25,2.11,1.3,2.86
8370,75,-90.37,42.25,2.31,0.59,2.87
8380,68.94,-71.69,29.75,2.06,-0.5,2.95
8390,56.63,-44.5,31.69,1.81,-1.19,3.59
8400,56.63,-44.5,31.69,2.52,-0.35,2.94
8410,56.81,-10.19,45.88,2.75,0.27,1.77
8420,88.75,25,53.06,2.96,1.24,-0.18
8430,87.87,33.75,48.63,2.85,1.81,-0.46
8440,86.37,34.63,41.25,2.83,2.16,-1.01
8450,86.37,34.63,41.25,2.7,2.33,-2.18
8460,88.69,29.06,33.06,2.31,2.25,-2.86
8470,52.75,-13,28.56,2.1,2.56,-1.79
8480,30.5,-28.87,36.56,2.17,3.08,-0.58
8490,19.94,-30.31,44.63,2.01,3.72,0.01
8500,19.94,-30.31,44.63,2.01,3.72,0.01
8510,17.06,-19.5,51.56,3.08,6.94,-0.86
8520,11.44,-2.44,39.88,3.45,7.68,-1.25
8530,4.37,-1.12,18.37,4.41,8.36,-1.64
8540,-8.88,-6.31,-15.38,4.17,7.39,-1.22
8550,-8.88,-6.31,-15.38,4.17,7.39,-1.22
8560,-29.19,-12.63,-54,3.69,5.65,-0.54
8570,-70.31,-10.06,-82.31,2.36,2.8,2.88
8580,-74.37,5.81,-74.62,2.52,3.27,3.73
8590,-57.63,34.88,-70,3.2,4.13,3.67
8600,-57.63,34.88,-70,3.2,4.13,3.67
8610,-23.69,61.44,-80.12,3.35,2.77,0.26
8620,5.94,84.5,-136.31,2.57,1.25,-0.14
8630,-7.56,98.25,-156.5,1.86,-0.31,-0.76
8640,-25.19,112.25,-161.37,1.28,-1.65,-1.55
8650,-25.19,112.25,-161.37,1.28,-1.65,-1.55
8660,-44.19,115.75,-152.5,0.26,-3.76,-2.41
8670,-65.06,92.94,-106.75,-0.36,-4.64,-2.54
8680,-56.5,71.37,-75.12,-0.28,-4.25,-2.75
8690,-39.63,48.38,-43.5,0.04,-3.52,-2.54
8700,-39.63,48.38,-43.5,0.04,-3.52,-2.54
8710,-26,26.31,-20.37,0.29,-2.74,-2.07
8720,-27.87,12.06,-4.25,1.13,-0.9,-1.54
8730,-32.69,14.56,-10.38,1.3,-1.11,-1.87
8740,-36.88,11.25,-21.75,1.17,-1.66,-1.87
8750,-36.88,11.25,-21.75,1.17,-1.66,-1.87
8760,-42.38,3.19,-28.87,1.06,-2.25,-1.57
8770,-46.31,-4.44,-28.87,1.47,-2.62,-0.33
8780,-44.94,-9.19,-24.19,1.51,-2.61,0.07
8790,-39.88,-11.56,-21.5,1.91,-2.11,0.67
8800,-34.88,-6.87,-19.56,1.91,-2.11,0.67
8810,-26.19,4.25,-20.06,2.02,-2.05,0.34
8820,-17.31,16.12,-25.06,1.9,-2.73,-0.73
8830,-15.31,25.81,-31.94,1.75,-3.3,-1.31
8840,-18.44,32,-34.63,1.74,-3.41,-1.63
8850,-17.44,33.06,-33.19,1.74,-3.41,-1.63
8860,-12.56,28.25,-28.94,1.76,-3.53,-1.97
8870,-10.25,19.87,-22.44,2,-3.15,-1.12
8880,-11,9.56,-13.19,2.14,-2.8,-0.7
8890,-9.31,1.19,-3.87,2.18,-2.56,-0.5
8900,-4.69,-3.94,2.94,2.18,-2.56,-0.5
8910,-3.62,-6.37,4.94,2.04,-2.51,-0.17
8920,-7.06,-8.63,5.06,1.62,-2.6,1.62
8930,-7.5,-6.75,6.06,1.7,-2.21,1.63
8940,0.81,1.87,10.06,2.37,-0.69,0.16
8950,13.81,14.06,16.75,2.37,-0.69,0.16
8960,22.69,22.31,18,2.28,-0.25,-0.25
8970,21.87,24.06,11.25,1.74,-0.12,0.11
8980,19.56,20.62,0.5,1.05,-1.27,1.14
8990,21.37,14.5,-11.25,0.72,-1.73,1.71
9000,23.25,11.63,-18.31,0.72,-1.73,1.71
9010,21.25,11.38,-18.75,0.22,-1.97,2.53
9020,16.56,23.5,-11.88,0.76,0.39,1.74
9030,18.81,49.19,-1.37,0.68,0.69,0.49
9040,27.12,71.06,-1.81,0.6,0.89,-0.59
9050,27.06,90.44,-10.19,0.6,0.89,-0.59
9060,15.44,105.5,-19.5,0.3,0.95,-1.68
9070,3.25,108.19,-32.5,-1.17,-2.4,-6.05
9080,-9.69,99.94,-47.31,-1.85,-3.73,-5.67
9090,-30.69,69.62,-50.06,-1.97,-3.12,-0.58
9100,-45.88,23.12,-31.25,-1.97,-3.12,-0.58
9110,-30.5,-21.69,2.81,-1.56,-1.5,1.32
9120,10.63,-43.69,33.44,-0.65,1.6,2.26
9130,37.81,-40.19,46.19,-0.81,2.51,1.76
9140,29.25,-7.37,36.56,-1.16,1.83,0.43
9150,1.94,45.13,14.31,-1.16,1.83,0.43
9160,-23.06,90.75,-9.69,-1.85,0.71,-1.14
9170,-38.88,109.12,-25.37,-3.18,-0.85,-3.62
9180,-40.75,103.5,-26.56,-3.5,-0.63,-4.08
9190,-25.31,82.31,-16.69,-3.51,-0.27,-4.25
9200,-5.44,50.88,-7.19,-3.51,-0.27,-4.25
9210,4.75,20.06,-2.25,-3.02,0.25,-2.9
9220,2.44,-4.62,-3.25,-3.01,-1.28,-1.05
9230,-7.56,-18.56,-11.25,-3.22,-2.3,-0.39
9240,-18.87,-20.25,-18.37,-3.17,-3.17,-0.5
9250,-22.69,-14.63,-14.25,-3.17,-3.17,-0.5
9260,-3.56,-9.25,24,-2.65,-2.63,-1.03
9270,-3.56,-9.25,24,-1.36,-0.24,-0.87
9280,10.81,-18.5,41.88,-0.18,2.06,-0.04
9290,22.75,-27.69,50.75,-0.18,2.06,-0.04
9300,24.44,-27.75,29.62,0.05,2.61,-0.05
9310,9.06,-17.56,2.94,0.06,2.51,-0.48
9320,-17,-9.25,-21.44,-0.61,1.45,-0.96
9330,-33.44,-4.62,-33.13,-2.61,-0.83,-0.58
9340,-26.19,-4.25,-33.56,-3.2,-1.43,-0.55
9350,-6.75,-7.37,-30.56,-3.73,-1.82,-0.7
9360,7.44,-8.69,-28.06,-4.48,-2.49,-1.75
9370,10.69,-7.94,-26.87,-4.44,-3.02,-2.38
9380,11.31,-9.44,-22.31,-4.75,-3.69,-2.85
9390,13.25,-11.56,-7.06,-4.99,-4.21,-3.4
9400,9.31,-17,15.5,-4.52,-3.99,-5.3
9410,-2.44,-31.56,36.88,-3.85,-3.45,-5.94
9420,-11.25,-58.56,52.25,-3.11,-2.81,-5.92
9430,-7.5,-91.94,59.63,-2.26,-1.96,-5.21
9440,2.62,-120,59.06,-1.04,-1.33,-2.81
9450,3.94,-135.44,56.81,-0.44,-1.28,-1.72
9460,-1.19,-137.75,52.69,0.16,-1.25,-0.45
9470,-6.12,-129.5,46.56,0.97,-1.48,1.25
9480,-11.31,-110.5,39.44,1.16,-1.96,1.41
9490,-14.56,-89.94,36,1.39,-2.45,1.56
9500,-11.63,-73.06,37.56,1.54,-2.95,1.65
9510,-2.06,-60.13,44.19,2.09,-3.13,1.37
9520,9.13,-53.13,50.38,2.42,-3.18,1.13
9530,17.87,-50.94,55.69,2.66,-3.24,1.14
9540,24.06,-50.19,60.81,2.91,-3.25,1.23
9550,28.44,-46.13,66.81,2.73,-3.21,2.07
9560,35.88,-32.5,76.44,2.68,-2.97,2.33
9570,47,-15.06,88.75,2.73,-2.46,2.09
9580,58.75,-0.94,101.75,2.75,-1.43,1.56
9590,64.37,7.12,108.75,3.24,0.91,-0.38
9600,60.19,6.37,106.75,3.5,1.89,-0.97
9610,54.31,-4.81,94.12,3.75,2.74,-1.1
9620,52.19,-24,72.31,3.7,3.25,-0.34
9630,51.75,-40.44,49.81,3.12,2.82,0.57
9640,53.38,-40.94,40.75,2.44,2.61,1.14
9650,57.75,-30.87,46.63,2.25,3.06,0.96
9660,53.25,-21.87,53.38,2.65,4.56,-0.5
9670,34.13,-18.19,52.63,2.76,5.29,-0.77
9680,9.19,-17.44,44,3,5.95,-0.83
9690,-12.5,-22.06,24.62,3.35,6.59,-0.51
9700,-26.94,-25.87,-9.25,2.92,5.99,1.47
9710,-30.62,-19.62,-44.94,2.25,4.65,2.49
9720,-22.81,-2.62,-67.87,1.33,3.11,2.88
9730,-12.69,19.06,-70.56,-0.09,0.82,1.83
9740,-10.44,38.31,-55,-0.38,0.72,0.83
9750,-17.06,50.19,-32.31,-0.31,1.26,-0.04
9760,-26.31,51.13,-15.5,0.08,2.24,-0.63
9770,-33.44,44.38,-14.63,0.79,3.63,-1.16
9780,-38.94,34.69,-27,0.91,3.65,-1.16
9790,-43.56,24.94,-44.63,0.93,3.23,-0.73
9800,-44.38,19.81,-62.13,0.85,2.57,0
9810,-39.31,19.87,-75.87,0.62,0.98,0.8
9820,-33.06,23.31,-83.62,0.6,0.35,1
9830,-27.62,31.06,-85.31,0.57,-0.06,0.95
9840,-26.44,42.75,-85.06,0.62,-0.41,0.68
9850,-30.75,53.63,-84.31,0.58,-1.25,-0.5
9860,-39.13,58.81,-81.87,0.55,-1.55,-0.77
9870,-45.19,59,-77.44,0.34,-1.86,-0.84
9880,-44.63,56.75,-68.69,0.12,-1.92,-1.09
9890,-35.13,51.63,-56.69,0.46,-1.29,-1.44
9900,-22.87,44,-48.88,0.69,-0.75,-2.14
9910,-21.12,31.19,-50.25,0.89,-0.4,-2.63
9920,-30.5,17.81,-57.19,1.02,-0.68,-1.77
9930,-36.63,9.81,-63.69,1.07,-0.82,-1.09
9940,-33.81,7.06,-68.56,1.04,-1.04,-0.82
9950,-33.06,9.31,-71.44,1.22,-1.25,-0.7
9960,-27.5,11.44,-75.69,1.59,-1.25,0.29
9970,-9.38,13,-83.81,1.73,-1.48,0.22
9980,5.62,15.19,-92.37,1.9,-1.72,-0.21
9990,5.75,17.81,-100.06,1.64,-2.57,-0.31
10000,-1.25,23.87,-104.37,1.52,-2.86,-0.37