timestamp,gyrox,gyroy,gyroz,accx,accy,accz
10,-2.12,-25.25,19.62,0,0,0
20,-17.06,-15.25,20.31,0,0,0
30,-21.06,-16.56,22.62,0,0,0
40,-26.56,-28.44,21.94,8.71,-3.1,-9.87
50,-30.87,-37.13,14.25,8.38,-3.53,-10.27
60,-31.44,-24.25,1.19,8.78,-4.2,-12.06
70,-54.5,-28.12,-13.88,9.7,-2.97,-9.54
80,0.-5.12,7.94,-0.69,0.4,-1.13,0.85
90,-17.19,7.06,-9.69,0.4,-0.7,1.21
100,-32.44,0.06,-13.06,0.34,-0.48,1.58
110,-40.19,-7,-15.88,1.3,-1.15,1.67
120,-40.19,-13.81,-25.31,1.82,-1.05,1.58
130,-29.5,-18.5,-37.81,1.32,-0.13,1.65
140,-8.06,-20.56,-41.63,1.08,1.26,1.12
150,9.13,-21.06,-37.06,0.87,1.57,0.91
160,10.44,-23.75,-25.81,0.82,1.5,0.94
170,-4.75,-32.56,-13.5,1.01,0.63,1.56
180,-29.81,-49.44,-4.37,0.83,0.37,1.94
190,-53.56,-71.81,3.06,0.77,0.12,2.22
200,-63.56,-94.37,8.13,0.81,-0.06,2.29
210,-45.44,-106.12,9.88,-0.17,-0.54,1.67
220,0.19,-105.75,14.31,-0.38,-1.52,0.81
230,40.94,-107.06,18.25,-0.36,-2.87,-0.51
240,67.37,-106.19,18.19,-1.35,-6.25,-2.59
250,89.56,-94.37,11.25,-3.17,-7.99,-3.17
260,100,-79.25,-0.88,-5.1,-9.53,-3.04
270,91.62,-75.37,-5.06,-6.55,-10.41,-2.88
280,83.87,-67.81,-10.44,-6.32,-11.86,-3.99
290,74.5,-37.75,-58.63,-5.6,-12.51,-4.24
300,39.56,-9.25,-142.69,-7.8,-11.54,-2.54
310,29.5,6,-203.81,-11.87,-7.1,3.33
320,66.62,-1.5,-239.87,-11.6,-6.13,4.38
330,103.56,-50.5,-271.5,-11.32,-4.52,4.61
340,136.75,-136.37,-296.81,-10.93,-2.46,3.94
350,169.56,-205.75,-318.69,-9.74,2.45,-0.47
360,181.5,-250.37,-338.44,-8.37,4.73,-1.95
370,157.69,-271,-360.75,-6.92,7.5,-3.31
380,135.56,-252.5,-389.25,-2.11,10.78,-5.47
390,103,-218.12,-432.56,-11.8,16.44,-6.26
400,61.38,-159.06,-345.56,-8.03,18.92,-4.11
410,59,-103.62,-257.81,-7.27,20.13,-3.89
420,16.06,-73.12,-160.69,-3.47,20.03,-1.23
430,-41.81,-74.81,-77.87,-0.64,19.82,1.63
440,-59.38,-100.69,-20.81,1.6,20,3.22
450,-50.44,-139.69,25.25,4.05,21.17,2.89
460,-40.25,-187.56,76.75,4.11,21.62,1.53
470,-32.69,-237.37,146.12,3.49,21.42,-0.71
480,-22.75,-275.44,235.69,2.43,15.31,-8.26
490,-27.75,-286.44,325.25,2.48,10.38,-11.62
500,-57.56,-267.5,388.62,3.15,5.51,-13.54
510,-88.62,-229.44,421.62,3.66,1.24,-14.19
520,-102.62,-185.37,431.81,4.03,-6.34,-15.09
530,-99.19,-133.37,419.12,4.42,-9.24,-15.51
540,-79.87,-68.19,382.19,4.78,-11.55,-15.93
550,-51.56,10.31,322.75,4.45,-13.98,-16.31
560,-26.81,102.56,251.44,3.07,-13.6,-15.34
570,-15.19,195,187.5,1.19,-12.49,-12.82
580,-10.31,266.81,142.81,-0.92,-11.28,-9.42
590,-10.75,306.44,119.62,-4.15,-9.98,-3.38
600,-20.62,318.62,113.25,-5.26,-9.79,-1.21
610,-26.81,316.75,115.31,-6.05,-9.87,0.55
620,-22.75,309.31,119,-8.34,-10.06,3.96
630,-12.31,295.19,135.94,-9.71,-9.54,5.28
640,7.62,272.5,171.94,-9.51,-9.43,6.52
650,39.44,238.62,155.19,-5.06,-12.32,6.4
660,43.31,187.56,105.94,-7.92,-13.41,6.67
670,57.94,140.5,72,-7.85,-13.39,6.85
680,92.75,100.19,34.38,-7.83,-13.37,6.05
690,113.37,64,-7.37,-8.06,-12.1,3.99
700,120.81,35.56,-47.88,-8.31,-10.69,3.04
710,128.37,15.63,-78.81,-8.49,-9.46,1.83
720,131.87,9.38,-103.25,-8.7,-7.31,-0.23
730,130.25,18.44,-127.25,-8.74,-6.14,-0.32
740,138.69,36.5,-150.06,-8.82,-5.26,-0.65
750,153.25,54.44,-169.44,-8.98,-4.42,-1.07
760,168.31,71.12,-182.31,-10.03,-2.35,-0.72
770,183.62,84.56,-185.5,-10.6,-0.82,0.48
780,196,82.25,-174.37,-10.69,0,1.37
790,192.12,64.37,-161.37,-10.42,0.92,1.55
800,170.06,37.06,-152.62,-10.3,1.53,1.94
810,158.44,4.5,-143.81,-9.86,2,2.29
820,163.62,-39.44,-137.44,-8.97,2.55,2.62
830,176.75,-88.81,-137.25,-8.34,4.77,1.25
840,188.5,-129.44,-137.12,-8.29,5.86,-0.19
850,185.19,-160.69,-131.37,-7.9,6.67,-1.48
860,159.06,-201.87,-122.06,-7.01,8.05,-2.49
870,137.31,-220,-108.56,-6.56,8.37,-4.46
880,137.75,-195.62,-89.75,-5.15,8.29,-6.8
890,124.5,-172.37,-80,-4.07,8.57,-8.03
900,109.37,-144.81,-72,-2.88,10.15,-7.87
910,107.12,-114.81,-58.56,-2.51,10.72,-7.28
920,100.62,-95.06,-38.75,-1.96,11.18,-6.22
930,87.31,-95.69,-15.13,-0.73,11.43,-4.6
940,69.62,-112.75,12.44,-1.02,11.09,-5.04
950,44.31,-125.37,47.94,-0.26,10.06,-5.84
960,11.56,-125.56,71.19,2.58,6.96,-6.74
970,-22.06,-112.81,69.87,3.65,6.63,-5.78
980,-37.94,-94.94,56.5,4.6,6.91,-4.52
990,-37.06,-84.31,40.94,5.15,7.85,-3.45
1000,-32.13,-85.12,35.38,5.8,10.37,-3.26
1010,-32.31,-91.56,44.69,5.77,11.27,-3.92
1020,-42.06,-95.25,68.56,5.94,11.66,-4.69
1030,-61.19,-96.12,101.69,6.33,10.99,-6.17
1040,-79.87,-92.87,141.94,6.2,10.09,-7.08
1050,-93.69,-74.5,186.31,6.19,8.75,-7.94
1060,-115.31,-43.88,227.56,6.82,6.64,-8.25
1070,-147,-10.88,250.5,6.98,2.25,-6.57
1080,-168.31,14.19,262.12,6.95,0.15,-5.3
1090,-173.5,27.69,260.56,7.48,-2.31,-4.77
1100,-174.25,28.56,238.75,7.33,-5.29,-4.15
1110,-156.06,28.69,208.19,6.6,-5.68,-4.81
1120,-121.25,43.06,177.69,6.12,-5.92,-5.77
1130,-95.37,67.69,146.06,5.61,-5.66,-6.6
1140,-84,96.19,121.19,3.05,-4.11,-6.86
1150,-76.31,127.56,109.37,1.71,-3.68,-7.04
1160,-82.19,159.69,111.44,0.41,-3.82,-6.7
1170,-99.62,185.25,121.62,-1.48,-5.04,-3.1
1180,-102.12,199.19,132.81,-2.18,-5.8,-1.73
1190,-90.5,203.87,141.5,-2.87,-6.66,-0.86
1200,-79.12,201.12,145.94,-4.77,-8.34,0.61
1210,-64.87,194.37,149.56,-5.75,-9.19,0.79
1220,-47.94,188.69,152.37,-6.85,-10.05,0.71
1230,-31.19,188.69,157.69,-8.42,-10.37,1.11
1240,-5.37,193.31,166.69,-6.42,-12.89,2.69
1250,14.25,186.37,128.37,-7.74,-13.59,3.09
1260,16.06,169.06,84.56,-8.78,-13.21,4.84
1270,46.5,141.31,48.75,-9.34,-12.92,5.7
1280,80.56,107.19,15.63,-9.63,-12.58,5.3
1290,96.75,66.37,-16.31,-9.87,-12.05,5.07
1300,106.12,23.12,-43.25,-10.26,-11.24,4.73
1310,121.12,-10.44,-64.25,-10.69,-9.26,2.97
1320,136,-33.94,-78.75,-10.6,-8.58,1.83
1330,144,-48.81,-91.56,-10.33,-7.97,1
1340,149.75,-57.75,-106.5,-9.61,-6.5,-0.17
1350,155.69,-62.5,-124.94,-9.46,-5.54,-0.46
1360,163.81,-63,-145.62,-9.5,-4.39,-0.52
1370,171.56,-63.63,-164,-9.43,-3.19,-0.79
1380,170.75,-66.56,-180.75,-9.68,-0.03,-0.99
1390,168.75,-69.69,-195.37,-9.33,1.69,-0.3
1400,168.75,-69.69,-195.37,-9.06,3.23,-0.38
1410,178.25,-79.87,-205.31,-9.53,6.64,-2.14
1420,176.12,-110.19,-198.69,-9.65,7.69,-2.72
1430,143.06,-125.37,-178.25,-9.07,8.24,-3.05
1440,110.5,-126.44,-157.25,-7.41,9.49,-3.38
1450,110.5,-126.44,-157.25,-6.69,9.91,-3.6
1460,95.44,-128.87,-142,-6.3,10.49,-3.63
1470,79.25,-138.81,-117.81,-5.86,10.96,-3.81
1480,68.62,-147.37,-100.37,-4.21,11.27,-5.11
1490,55.81,-152,-83.69,-3.16,11.11,-5.88
1500,55.81,-152,-83.69,-2.16,11.16,-6.57
1510,42.81,-146.37,-72.87,-0.27,12.29,-6.87
1520,13.44,-107.94,-63,0.49,13.01,-5.98
1530,2.69,-90.12,-53.56,1.18,13.45,-4.96
1540,-5.5,-80.62,-41.5,1.75,13.51,-4.19
1550,-5.5,-80.62,-41.5,1.75,13.51,-4.19
1560,-21.37,-80.06,-29.12,1.88,13.44,-1.63
1570,-40.81,-107.12,36.31,1.49,13.52,-1.59
1580,-36.13,-129.56,96.5,3.55,12.15,-4.58
1590,-43.94,-152.44,150.87,4.8,10.57,-5.83
1600,-43.94,-152.44,150.87,5.59,9.17,-5.99
1610,-69.5,-170.19,195,5.59,9.17,-5.99
1620,-126.56,-185.87,261.12,9.22,0.59,-9.05
1630,-184.31,-164.25,244.06,9.85,-0.48,-7.8
1640,-172.12,-110.37,216.56,9.9,-1.02,-6.5
1650,-172.12,-110.37,216.56,9.9,-1.02,-6.5
1660,-110.69,-52.44,202,9.71,-3.64,-6.32
1670,-112.31,-25.37,198.62,9.53,-4.81,-7.16
1680,-125.31,-23.06,194.25,9.41,-7.22,-10.25
1690,-119.81,0.44,183.19,9.2,-8.25,-11.28
1700,-119.81,0.44,183.19,9.2,-8.25,-11.28
1710,-117.69,40.75,160.25,8.11,-8.52,-10.9
1720,-89.31,138.62,115.12,2.91,-7.92,-8.11
1730,-73.94,185.87,105.06,1.16,-7.78,-6.73
1740,-70.5,220.62,105.12,-0.43,-8.03,-5.19
1750,-70.5,220.62,105.12,-0.43,-8.03,-5.19
1760,-73.44,241.75,109.62,-2.9,-8.9,-1.37
1770,-62.13,247.25,116.75,-4.8,-10.11,1.46
1780,-38.81,240.25,115.06,-5.84,-10.47,2.51
1790,-7.62,227.12,122.5,-8.18,-10.12,4.28
1800,-7.62,227.12,122.5,-8.18,-10.12,4.28
1810,29.69,212.31,136.37,-7.92,-10.82,3.54
1820,30.56,167.37,54.75,-8.35,-12.28,4.43
1830,36,140.62,13.25,-8.84,-11.68,5.04
1840,79.87,111.94,-20,-9.22,-11.3,4.45
1850,79.87,111.94,-20,-9.22,-11.3,4.45
1860,110.19,77.56,-49.19,-9.71,-10.8,3.72
1870,144.75,22.75,-87.31,-11.14,-8.65,1.29
1880,155.69,9.69,-99.25,-11.62,-8.15,0.26
1890,151.69,4.19,-109.62,-12.55,-7.33,-0.04
1900,151.69,4.19,-109.62,-12.55,-7.33,-0.04
1910,144.37,2.75,-121.5,-12.63,-7.03,0.48
1920,146.62,-1.31,-136.81,-12.87,-6.1,1.32
1930,159.19,-12.5,-155.62,-13.22,-3.89,1.59
1940,175.19,-28.37,-177.81,-13.41,-2.53,1.7
1950,189.44,-49.44,-199.62,-13.41,-2.53,1.7
1960,200.75,-78.12,-219,-13.37,-0.93,1.84
1970,210.06,-116.87,-235.62,-13.34,5.2,-0.4
1980,219.44,-154.62,-247.87,-13.25,7.03,-1.5
1990,225.94,-183.69,-250.44,-12.71,10.24,-4.04
2000,214.25,-203.75,-247.56,-12.71,10.24,-4.04
2010,181.69,-202.94,-231.5,-11.04,11.03,-3.37
2020,160,-211.87,-209.62,-10.18,10.91,-5.76
2030,135.37,-218.94,-174.25,-6.38,11.97,-7.29
2040,89.75,-209.75,-135.69,-4.1,12.94,-7.51
2050,54.5,-186.87,-114.62,-4.1,12.94,-7.51
2060,31.62,-158.5,-113.12,-2.51,14.7,-7.77
2070,13.31,-128.31,-107.94,-1.4,19.09,-4.23
2080,16.56,-100.37,-80.31,-0.99,19.04,-3.41
2090,28.37,-91.31,-37.69,-0.87,19.05,-3.69
2100,28.37,-98.62,10.94,-0.87,19.05,-3.69
2110,5.94,-122.12,69.75,1.45,18.22,-4.67
2120,-40.25,-167.5,130.25,6.86,11.07,-11
2130,-119.19,-199.87,141.44,6.82,11.02,-9.97
2140,-137,-162.5,132.25,6.37,12.22,-6.65
2150,-100.25,-100.62,143.06,6.37,12.22,-6.65
2160,-68.44,-76.75,177.19,5.85,12.43,-4.67
2170,-56.81,-92.31,224.19,6.32,6.01,-9
2180,-87.69,-105.37,250,5.78,4.27,-9.51
2190,-93.5,-101.62,278.5,6.11,1.12,-10.69
2200,-92.12,-91.31,317.19,6.11,1.12,-10.69
2210,-137.31,-87,339.31,6.81,-5.17,-11.29
2220,-175.06,-68.75,337.56,7.21,-9.74,-10.91
2230,-153.62,-27.25,323.37,7.17,-12.48,-10.79
2240,-117.62,26.12,290.69,6.82,-12.55,-10.04
2250,-99.87,77.37,241.87,6.82,-12.55,-10.04
2260,-85.44,123.94,186,6.13,-12.02,-9.03
2270,-67.37,163,128.69,2.97,-8.2,-5.71
2280,-52,193.75,78.5,1.49,-6.14,-4.52
2290,-48.31,214.06,42.38,-0.01,-4.41,-3.59
2300,-51.38,225.69,25.06,-0.01,-4.41,-3.59
2310,-50.63,236.5,24.5,-2.65,-2.9,-1.6
2320,-44,248.69,37,-4.56,-4.1,-0.05
2330,-40.31,254.06,55,-5.39,-5.32,0.54
2340,-36.69,251.37,75,-6.12,-8.4,1.28
2350,-28,242.75,91.69,-6.12,-8.4,1.28
2360,-20.12,230.69,99.5,-6.69,-9.55,1.14
2370,-17.87,215.5,100.44,-8.67,-11.27,2.45
2380,-7.56,202.62,101.62,-8.14,-11.7,2.57
2390,20.5,195.56,110,-5.56,-13.09,2.32
2400,53.75,185.44,100.69,-5.56,-13.09,2.32
2410,62.44,162.94,42.81,-7.91,-13.3,2.74
2420,50.63,137.69,-9.06,-8.58,-11.88,3.79
2430,71.25,106.25,-46.75,-8.84,-11.51,2.77
2440,106.62,71.31,-79.75,-9.83,-9.46,0.72
2450,125.56,40.5,-112.81,-9.83,-9.46,0.72
2460,133.87,19.69,-140.12,-10.11,-8.38,-0.07
2470,141.81,13.13,-161.25,-10.98,-5.22,-0.45
2480,148.37,12.19,-175.62,-10.99,-4.4,-0.17
2490,157.69,13.13,-186,-11.1,-3.52,0.04
2500,166.37,9.94,-194.19,-11.1,-3.52,0.04
2510,171.37,0.19,-199.75,-11.23,-2.46,0.4
2520,173.19,-15.31,-200.87,-11.31,-0.23,0.3
2530,170.94,-34.44,-198.81,-10.93,0.54,-0.13
2540,166.69,-49.19,-202.44,-10.48,1.66,-0.46
2550,167.44,-54.88,-215.37,-9.93,5.4,-1.7
2560,171.19,-62.88,-224.69,-10.43,6.67,-3.35
2570,167.56,-61.81,-222.87,-11.36,7.82,-5.37
2580,154.69,-33.56,-197,-11.78,9.33,-4.52
2590,137,-22.44,-144.37,-12.01,8.95,-2.07
2600,114.5,-26.81,-80.69,-10.4,7.51,-1.48
2610,76.56,-49.88,-31.94,-8.85,5.8,-0.87
2620,36.38,-87.75,-16,-5.75,4.87,0.03
2630,32.31,-119.5,-28.56,-4.37,5.16,-0.37
2640,49.69,-141.5,-59.5,-3.36,5.92,-0.96
2650,55.56,-155.37,-100.56,-2.75,8.09,-0.99
2660,78.25,-168.12,-133.87,0.38,11.86,-0.39
2670,125,-181.75,-171.56,-1.6,12.72,-3.59
2680,98.25,-189,-156.19,-2.6,16.92,-4.15
2690,67.19,-182.81,-77.62,0.83,18.73,-5.69
2700,40.94,-168.81,-6.62,1.88,18.32,-6.18
2710,-15.44,-150.81,57.13,3.25,17.77,-4.15
2720,-38.25,-137.25,109.19,5.89,16.15,-1.56
2730,-34.5,-141.75,148.56,7.91,13.9,-1.13
2740,-63.75,-183.12,170.44,6.64,13.77,-1.18
2750,-52.5,-213.31,191.94,4.89,14.87,-2.04
2760,-19.69,-233.75,248.12,4.71,10.81,-8.25
2770,-44.56,-255.19,303.81,5.32,7.7,-11.19
2780,-86.5,-246.44,336.5,5.77,4.86,-13.2
2790,-110.94,-201.62,347.25,6.59,-1.06,-14.63
2800,-129.25,-142.31,339.19,6.85,-3.12,-13.44
2810,-142,-86.75,321.06,6.39,-4.81,-12.22
2820,-136.94,-36.63,301.75,5.77,-6.34,-11.51
2830,-123.62,8.25,280,4.68,-8.12,-10.87
2840,-103.69,53.06,259.12,3.87,-8.52,-10.7
2850,-79.94,103.37,239.62,2.97,-8.86,-10.43
2860,-69.87,149.19,221.62,1.33,-9.61,-8.31
2870,-72.75,179.75,207,0.22,-9.96,-7.46
2880,-76.69,200.87,193.44,-0.69,-10.37,-6.78
2890,-78.5,219.06,176.31,-1.39,-10.7,-5.97
2900,-70.87,237.75,153.12,-2.39,-10.89,-3.46
2910,-49.75,256.75,124.69,-3.11,-10.53,-2.18
2920,-26.75,267.12,98.5,-3.94,-10.07,-0.81
2930,-6.44,265.56,78.37,-5.27,-9.39,1.52
2940,11.81,254.44,63.19,-5.85,-9.2,1.96
2950,26.75,237.75,50.13,-6.34,-9.13,2.08
2960,36.44,220.94,38.06,-6.87,-9.44,2.36
2970,41,207.25,26.69,-7.17,-9.7,2.49
2980,44.06,192.25,16.56,-7.65,-9.79,2.66
2990,51.75,177.69,11.44,-7.79,-10.03,2.76
3000,66.12,166.5,3.87,-7.25,-10.25,3.23
3010,85.87,154.37,-12.25,-6.25,-10.26,3.23
3020,110.19,140.56,-53.13,-6.29,-10.01,3.27
3030,123.62,107.94,-99.12,-7.99,-7.71,4.16
3040,145.81,66.69,-127.06,-8.34,-7.12,3.13
3050,172.5,32.63,-143.56,-8.62,-6.77,1.66
3060,172.94,5.56,-158.25,-8.94,-5.99,0.77
3070,160.5,-15.69,-167,-9.83,-4.3,-0.01
3080,158.5,-26.62,-170.44,-10,-4.41,-0.5
3090,160.81,-27.44,-178,-9.8,-4.55,-0.82
3100,162.25,-22.44,-195.37,-9.68,-3.24,-0.57
3110,162.44,-23.81,-217.44,-9.76,-2.1,-0.44
3120,163.62,-32.44,-236.56,-10.03,-0.88,-0.39
3130,165.12,-43.75,-249.44,-10.31,0.57,-0.24
3140,168.75,-57.19,-253.81,-10.2,3.83,-0.5
3150,170.44,-73.12,-249.94,-10.32,5.15,-0.95
3160,163.56,-86.69,-238.81,-10.23,6.42,-1.42
3170,147.5,-95.5,-221.12,-9.96,8.48,-1.63
3180,123.81,-102.31,-197.06,-10.05,8.91,-1.23
3190,100.12,-105.5,-163.19,-9.82,8.84,-0.71
3200,82.56,-114.62,-121.56,-7.5,8.38,0.37
3210,77,-137.81,-87.5,-6.34,8.53,0.01
3220,81.75,-162.37,-69.75,-5.89,9.02,-1.17
3230,81.69,-168.69,-54.69,-5.47,9.48,-2.45
3240,68.12,-159.87,-36.06,-4.21,10.08,-2.59
3250,48.38,-150,-12.31,-3.66,10.31,-1.69
3260,34.5,-145.69,17.75,-3.25,10.27,-0.89
3270,30.69,-146.75,53.38,-1.14,8.67,-0.22
3280,26.5,-155.06,77.81,-0.12,7.93,-0.13
3290,18.5,-170.25,86.25,0.98,7.75,-0.13
3300,17.69,-188,86.06,2.09,8.1,-0.64
3310,24.94,-204.62,84.06,3.21,9.22,-4.27
3320,24.25,-211.56,87.56,3.11,9.55,-6.34
3330,11.56,-196.12,96.37,3.06,10.19,-7.61
3340,-6.56,-168.25,118.75,4.77,9.14,-9.48
3350,-25.69,-134.62,139.37,5.37,8.55,-9.63
3360,-34.38,-93,153.62,5.83,8.07,-9.5
3370,-41.63,-54.06,166.37,5.91,7.87,-8.66
3380,-54.81,-28.94,185,5.38,6.25,-7.24
3390,-73,-15.81,208.94,5.53,4.42,-7.3
3400,-94.81,-7.5,229.75,6.14,1.98,-7.69
3410,-113.75,3.44,236.06,7.13,-2.09,-7.79
3420,-121.62,17.37,226.81,7.35,-2.99,-7.83
3430,-113.37,33.69,207.44,7.25,-3.27,-7.97
3440,-90.62,54.25,183.81,6.88,-2.98,-8.35
3450,-70.62,83.5,163.69,4.55,-1.79,-9
3460,-72.44,115.44,157.87,3.62,-1.51,-8.27
3470,-84.19,141.25,165.87,3.17,-1.63,-7.23
3480,-87.12,161.94,178.62,2.08,-3.79,-5.49
3490,-87.25,179.94,188.75,1.44,-5.12,-4.83
3500,-96.06,193.19,194.12,0.66,-6.31,-3.95
3510,-105.69,201.81,195.06,0.03,-8.69,-1.33
3520,-94.12,208.37,189.5,-0.21,-9.67,-0.85
3530,-68.31,215.5,172.25,-0.46,-10.25,-0.37
3540,-48.44,216.37,145.19,-0.88,-10.37,0.27
3550,-31.25,211,115.75,-2.31,-10.1,1.72
3560,-14.56,199.31,91.75,-3.05,-10.05,2.07
3570,2.75,182.87,75.12,-3.53,-10.24,2.21
3580,16.69,165.56,61.31,-5.54,-10.55,2.14
3590,21,150,53.69,-6.93,-10.59,2.26
3600,20.87,135.56,59.19,-7.29,-10.9,2.52
3610,28.25,123.69,67.19,-7.34,-11.22,2.87
3620,43.75,101.94,51.75,-6.12,-13.24,3.56
3630,59.94,62.56,5.31,-6.62,-12.91,4.01
3640,94.31,17.31,-35.56,-7.07,-12.24,3.88
3650,152.5,-23.37,-75.37,-9.29,-10.32,0.02
3660,193.44,-51.13,-105.44,-10.34,-9.64,-2.2
3670,189.19,-63.56,-124.94,-11.06,-9.09,-3.53
3680,160.06,-59.94,-139.19,-11.38,-8.65,-4.02
3690,134.44,-43.63,-154.19,-11.26,-7.98,-4.43
3700,114.12,-21.25,-177.12,-11.26,-7.32,-3.87
3710,100.37,1.56,-209.19,-11.5,-6.03,-2.58
3720,104.69,14.56,-239.69,-11.98,-2.38,-0.47
3730,126.94,16.56,-264.5,-11.88,-0.77,-0.38
3740,146,12.63,-283.94,-11.83,0.93,-0.62
3750,147.19,8.63,-299.31,-12.53,4.66,-1.24
3760,127.19,6.62,-306.19,-12.87,6.3,-0.7
3770,105.44,7.5,-300.12,-12.55,7.6,0.13
3780,101.31,8.69,-286,-11.78,8.4,0.57
3790,109.06,3.37,-268.37,-10.76,8.85,-0.52
3800,105.94,-15,-246.62,-10.22,8.64,-0.82
3810,86.94,-49.81,-217.25,-9.66,8.73,-0.37
3820,78.69,-81.94,-176.94,-8.31,10.35,0.5
3830,112.19,-94.94,-130.31,-7.53,10.29,-0.01
3840,157.12,-99,-109.44,-6.7,10.62,-0.07
3850,180.81,-109.81,-109.5,-6.38,11.24,0.2
3860,183.94,-125.81,-117.5,-9.51,12.88,-2.34
3870,143,-142.25,-104.12,-9.58,13.61,-3.67
3880,49.81,-169.62,-50.38,-6.92,13.67,-3.8
3890,-47.31,-210,30.5,-2.61,12.29,-2.53
3900,-87.94,-266.5,110.37,-0.89,10.91,-2.3
3910,-46.5,-288.87,171.94,0.31,8.26,-4.96
3920,7.69,-245.19,193.56,2.27,6.58,-7.26
3930,-13.56,-201.56,187.25,3.79,7.84,-3.45
3940,-69.06,-197.81,181.5,4.52,7.9,-1.75
3950,-111.06,-216.31,174.69,5.74,7.56,-1.05
3960,-115.69,-229.06,156.94,7.8,7.76,-3.01
3970,-79.56,-217.62,139.19,8.18,8.34,-4.8
3980,-44.81,-191.94,139.5,8.37,8.68,-6.5
3990,-35.88,-161.31,161.87,8.13,7.81,-8.76
4000,-43.38,-122.12,197.25,8.38,5.99,-9.17
4010,-63.25,-78.5,229.94,8.9,3.69,-8.79
4020,-89.87,-47.56,242.44,8.64,1.95,-7.89
4030,-97.12,-33.94,241.06,7.54,-0.62,-8.37
4040,-79.44,-26.06,240.19,6.63,-2.05,-10.03
4050,-65.19,-12.69,244.44,5.83,-3.62,-11.68
4060,-67.44,14.31,249.19,4.7,-6.55,-12.75
4070,-68,62.06,248.12,4.09,-7.8,-12.43
4080,-64.25,124.56,234.94,3.19,-8.51,-11.28
4090,-66.37,186.94,210.69,1.93,-8.59,-9.29
4100,-75.31,235.37,185.37,-1.04,-7.8,-3.81
4110,-91.19,259.25,171.37,-1.8,-7.59,-1.41
4120,-107.25,257,169.37,-2.22,-7.77,0.68
4130,-106.62,237.62,168.06,-1.99,-8.34,3.42
4140,-91.87,201.56,163.19,-1.88,-8.61,3.68
4150,-70.06,155.69,149.06,-2.24,-8.68,3.72
4160,-30.37,119.31,128.56,-2.79,-8.85,3.38
4170,19.62,96.19,106.06,-4.14,-9.8,2.18
4180,63.63,85.5,80.19,-4.74,-10.14,1.34
4190,87.69,77.5,53.56,-4.76,-10.63,0.84
4200,107.75,70.94,23.44,-6.45,-10.61,1.04
4210,157.12,71.62,0.62,-6.85,-11.8,-1.15
4220,152.25,62.75,-25.25,-7.21,-12.17,-2.09
4230,94.31,47.44,-63,-8.15,-10.54,0.58
4240,72.94,36.06,-106.69,-9.03,-9.38,1.45
4250,117.06,25,-140.12,-9.66,-8.75,0.48
4260,159.12,7.56,-162.12,-10.19,-8.25,-0.97
4270,165.06,-6.56,-179.44,-10.64,-6.73,-2.92
4280,155.44,-5.12,-195.94,-10.79,-5.99,-3.2
4290,149.31,11.31,-212.25,-10.68,-5.05,-3.02
4300,143.12,28,-224.37,-10.64,-2.4,-1.61
4310,143.12,28,-224.37,-10.52,-1.22,-1.16
4320,137.06,43.63,-238.56,-10.15,0.2,-0.79
4330,132.81,43.63,-246.75,-9.75,1.92,-0.34
4340,134.5,42.44,-256.12,-9.62,5.88,0.45
4350,143.37,43.06,-261.44,-9.4,7.37,0.11
4360,143.69,48.13,-258.44,-9.52,8.6,-0.76
4370,112.31,60.75,-248.12,-8.45,11.57,0.65
4380,65.06,70.12,-223.19,-9.41,13,2.3
4390,28.75,62.81,-172.12,-8.35,13.37,4.21
4400,6,15.75,-99.62,-7.35,12.22,4.21
4410,6,15.75,-99.62,-5.01,9.37,2.89
4420,-25.75,-41.38,-43.19,-4.81,9.56,3.57
4430,-55.31,-98.69,-3.37,-4.33,9.36,3.75
4440,-21.5,-111,13.25,-2.24,8.03,2.76
4450,-12.31,-129.62,17.87,-2.05,8.54,2.75
4460,-12.31,-129.62,17.87,-2.05,8.54,2.75
4470,-3.81,-153.5,21.62,-0.46,9.1,2.14
4480,10.56,-151,24.44,1.36,10.15,1.49
4490,17.94,-150.75,32.06,2.29,10.73,1.29
4500,15,-160.5,49.06,3.29,11.21,1.13
4510,15,-160.5,49.06,4.71,11.54,0.18
4520,14.25,-174.56,70.44,4.96,11.46,0.19
4530,46.94,-203.31,119.37,5.21,10.89,-0.59
4540,86.81,-199.44,146.12,4.65,9.88,-5.45
4550,95.87,-195.75,194.56,5.72,7.47,-7.42
4560,95.87,-195.75,194.56,6.69,4.78,-8.6
4570,28.87,-220.12,254.87,7,2.87,-8.92
4580,-57.13,-233.69,305.37,7.03,-2.43,-12.56
4590,-53.31,-211.81,308.44,7.18,-4.59,-14.21
4600,-59.13,-165.56,288.69,6.74,-5.79,-15.45
4610,-59.13,-165.56,288.69,6.74,-5.79,-15.45
4620,-61.94,-91.69,257.87,5.06,-7.04,-16.04
4630,-67.44,92.44,203.69,4.29,-8.05,-13.14
4640,-88.69,161.37,177.5,3.06,-8.05,-10.47
4650,-92.87,209.37,155,1.51,-8.33,-5.04
4660,-92.87,209.37,155,1.51,-8.33,-5.04
4670,-76.5,239.31,135,0.4,-8.88,-2.08
4680,-37.06,264.75,76.75,-0.69,-8.25,0.24
4690,-26.5,265.56,39.44,-0.9,-7.38,1.08
4700,-23.56,255.25,5.19,-0.66,-6.2,1.87
4710,-23.56,255.25,5.19,-0.66,-6.2,1.87
4720,-23.81,235.56,-22.87,-2.34,-5.99,-0.3
4730,-30.75,219.56,-25.56,-5.29,-0.98,4.62
4740,-22.12,184.19,6.06,-5.3,-1.86,4.16
4750,-17.75,149.56,31.94,-6.23,-4.79,2.75
4760,-17.75,149.56,31.94,-6.23,-4.79,2.75
4770,-19.94,130.62,47.25,-6.38,-6.47,2.48
4780,-5.06,114.81,41.63,-5.4,-10.61,2.04
4790,-0.88,96.69,20.81,-4.89,-11.03,2.04
4800,15.06,70.12,-10.38,-4.93,-11.17,1.54
4810,15.06,70.12,-10.38,-4.93,-11.17,1.54
4820,42.19,39.38,-47.38,-5.28,-11.09,0.54
4830,98.75,9.94,-115.31,-6.7,-9.08,-2.85
4840,108.62,12.81,-138.44,-7.18,-8.06,-3.39
4850,100.94,19.75,-153.69,-8.14,-6.09,-3.17
4860,100.94,19.75,-153.69,-8.14,-6.09,-3.17
4870,90.75,26.69,-158.94,-8.42,-6.05,-3.1
4880,75.44,42.81,-161.87,-8.75,-7.03,-2.62
4890,75.31,51.38,-171.56,-8.49,-8.11,-1.39
4900,80.69,54.31,-191.87,-8.53,-8.23,-1.12
4910,80.69,54.31,-191.87,-8.53,-8.23,-1.12
4920,85.37,51.69,-221,-8.9,-7.98,-1.15
4930,82.25,45.63,-255.5,-10.59,-3.47,-1.2
4940,74.81,41.06,-292.12,-10.66,-1.65,-0.45
4950,64.62,40.69,-324.56,-10.25,-0.22,0.03
4960,60.81,39.81,-346.94,-10.25,-0.22,0.03
4970,59.75,37.81,-362.87,-9.47,3.17,0.33
4980,48.31,38.38,-380.31,-10.93,7.15,1.74
4990,44.44,58.5,-399.75,-10.16,10.72,3.56
5000,70.75,58.44,-392,-9.86,11.64,2.33
5010,121.44,43.56,-362.44,-9.86,11.64,2.33
5020,151.31,27.87,-312.75,-9.55,12.3,1.2
5030,125.37,8.06,-244.62,-7.32,11.3,3.13
5040,77.62,-19.44,-164.81,-6.08,9.22,3.99
5050,45.19,-44.81,-89,-4.91,7.14,4.5
5060,34.19,-69.87,-35.25,-4.91,7.14,4.5
5070,33.63,-96.37,-13.63,-2.46,5.61,4.43
5080,36.06,-121.19,-18.12,-1.88,7.61,3.07
5090,45.31,-136.37,-32.81,-2.05,8.81,2.32
5100,49.13,-142.87,-38.44,-1.83,8.7,2.14
5110,58.81,-142.81,-30.56,-1.83,8.7,2.14
5120,73.56,-140.06,-10.63,-1.36,8.03,1.97
5130,70.12,-151.5,16.19,0.44,5.27,0.7
5140,54.5,-183.44,38.75,0.86,4.92,-0.9
5150,44.63,-225.31,51.56,1.42,4.99,-1.2
5160,36.25,-269.25,58,1.42,4.99,-1.2
5170,39.81,-317.62,63,2.78,4.74,-6.98
5180,56.13,-297.25,55.81,3.68,6.45,-10.46
5190,48.81,-260.75,50,3.68,7.17,-10.08
5200,23,-215.5,54.44,4.07,6.01,-8.28
5210,3.69,-171.62,73.69,4.07,6.01,-8.28
5220,-9,-139.12,95.25,4.09,4.88,-7.37
5230,-17.87,-118.56,106.69,4.36,4.34,-8.65
5240,-19.25,-106.37,110,4.71,4.49,-9.3
5250,-23.12,-78.69,107.94,4.53,4.95,-7.81
5260,-44.88,-31.87,103.31,4.53,4.95,-7.81
5270,-61.25,7.37,105.62,3.91,4.42,-4.44
5280,-56,32.25,118.25,3.64,2.18,-2.72
5290,-54.75,44.5,132.94,3.2,1.42,-2.23
5300,-60.56,43.75,142.44,3.05,-0.53,-2.96
5310,-59.75,38.44,149.25,3.05,-0.53,-2.96
5320,-70.19,32.44,151.37,2.68,-1.02,-3.19
5330,-85.75,28.56,150.87,2.44,-2.46,-4.1
5340,-86.81,35.75,150.56,2.02,-2.81,-4.04
5350,-80.44,52.56,147.94,1.54,-2.99,-3.51
5360,-78,72.69,141.62,1.54,-2.99,-3.51
5370,-76.5,89.87,137.5,1.09,-3.31,-2.78
5380,-72.69,100.56,137.12,0,-5.11,-0.99
5390,-68.56,103.81,138.31,0.01,-5.94,-0.84
5400,-58.88,103.37,138.62,-0.07,-7.79,-1.06
5410,-44.25,101.37,135.75,-0.07,-7.79,-1.06
5420,-32.94,101.81,125.44,-0.31,-8.35,-1.12
5430,-24,105.12,109.44,-0.66,-9.01,-0.77
5440,-17.19,108.37,88.75,-0.53,-8.89,0.32
5450,-11.94,109.5,64.87,-0.67,-8.36,0.82
5460,-4.69,107.12,39.19,-0.67,-8.36,0.82
5470,7.81,101.31,13.75,-0.98,-7.61,0.97
5480,19.12,92.62,-5.87,-2.28,-5.49,0.35
5490,25.06,83.56,-17,-2.52,-5.29,0
5500,29,78.44,-21.37,-2.52,-5.29,0
5510,29.25,75.12,-21.25,-2.92,-5.49,-0.25
5520,28.25,71.94,-21.06,-3.23,-5.64,-0.71
5530,29.75,70.25,-21.31,-3.1,-6.3,-1
5540,30.81,72,-23.94,-2.91,-7.11,-1.09
5550,26.87,71.12,-35.06,-3.18,-7.81,-0.74
5560,29.44,72.44,-51.56,-3.15,-8.1,-0.69
5570,37.69,75.75,-73.37,-3.2,-8.06,-0.57
5580,40.06,76.56,-97.62,-3.81,-6.68,-0.09
5590,39.88,74,-119.56,-3.97,-5.76,-0.16
5600,41.31,70.56,-136.37,-4.24,-4.99,-0.45
5610,39.63,67.87,-148.12,-4.49,-4.38,-0.51
5620,35.31,66,-156.62,-4.87,-3.51,-0.29
5630,33.19,63.88,-164.5,-4.54,-3.36,-0.23
5640,34.69,60.44,-175.06,-4.2,-2.89,-0.28
5650,38.94,55.88,-190.37,-3.87,-0.07,-0.24
5660,48.38,52.88,-206.12,-3.7,1.85,-0.34
5670,66.87,56.44,-215.87,-3.4,3.79,-0.55
5680,82.5,65.5,-216.87,-3.22,5.8,-0.51
5690,85.44,77.12,-209.56,-3.6,9.7,0.99
5700,82.25,86.94,-189.19,-3.13,10.52,1.68
5710,77.25,89.25,-162.75,-2.28,11.05,1.78
5720,65,85.06,-137.25,-2.03,12.23,1.44
5730,46.88,74.87,-109.87,-2.54,12.61,1.01
5740,35.88,69.81,-79.69,-2.83,12.78,0.61
5750,23.44,69.06,-47.13,-3.19,13.72,0.97
5760,2.56,72.44,-18.12,-3.86,14.11,1.76
5770,-8.31,78.75,13.81,-4.21,13.82,2.29
5780,-8,82.75,50.31,-4.18,13.14,2.58
5790,-14.06,73.81,84.06,-4,11.28,2.44
5800,-33.88,49.25,111.44,-4.4,10.38,2.04
5810,-58.38,18.69,135.06,-4.83,9.2,1.31
5820,-74.5,1.37,155.69,-5.38,6.45,0.08
5830,-84.62,-4.62,172.56,-5.83,5.14,-0.24
5840,-88,-4.87,186.19,-5.93,3.54,-0.93
5850,-83.56,-1.06,194.31,-6.51,2.4,-1.38
5860,-75.81,12.19,196.62,-8.27,1.31,0.48
5870,-64.37,15.75,207.94,-8.3,0.01,0.83
5880,-60.94,3.06,222.19,-8.36,-1.39,0.71
5890,-70.44,-20.75,228.94,-7.15,-4.67,0.31
5900,-82.31,-46.38,224.87,-6.63,-5.97,-0.1
5910,-94.37,-74.75,212.06,-5.97,-7.19,-0.68
5920,-103.37,-99,192,-5.65,-8.31,-1.26
5930,-98.12,-103.12,164.81,-5.41,-10.53,-1.9
5940,-86.44,-96,133,-5.01,-11.28,-1.6
5950,-79.56,-88.69,94.69,-4.25,-11.68,-1.04
5960,-72.94,-88.62,53.94,-2.64,-11.88,-0.39
5970,-59.31,-95.94,12.5,-2.11,-11.18,-0.42
5980,-42,-106.12,-27.69,-2.16,-10.1,-0.4
5990,-27.19,-117.5,-51.13,-2.11,-9.65,-0.65
6000,-23.44,-135.06,-54.69,-0.9,-10.99,-1.91
6010,-28.37,-154.06,-51,0.72,-12.08,-2.27
6020,-22.5,-165.44,-50.63,2.31,-12.96,-2.58
6030,4.62,-168.12,-59,4.44,-13.84,-4.54
6040,40.25,-162.81,-75.75,5.55,-13.67,-5.37
6050,69.81,-150.06,-100.5,5.71,-12.69,-5.75
6060,101.06,-130.87,-126.12,5.93,-9.72,-6.38
6070,134.06,-112.44,-141.37,6.76,-8.8,-6.96
6080,157.37,-89.87,-149.44,7.53,-7.63,-7.04
6090,158.69,-63.81,-157.44,7.98,-6.28,-6.37
6100,149.44,-45.38,-164.25,9.19,-2.86,-6.47
6110,128.56,-34.75,-171.44,9.11,-0.7,-6.3
6120,102.06,-25.5,-178.12,8.8,1.64,-6.02
6130,94.62,-9.56,-179.62,8.19,5.82,-6.99
6140,104.44,13.63,-175.31,7.62,7.83,-7.34
6150,118.94,45.94,-169.25,6.65,9.91,-7.93
6160,120.87,81.31,-154,5.5,11.59,-8.48
6170,88.69,116.87,-123.94,3.37,13,-4.87
6180,35.06,139.44,-84.75,3.07,12.98,-2.81
6190,3.31,150.81,-47.19,3.01,12.36,-1.58
6200,4.62,171.12,-23.56,1.38,11.99,-0.06
6210,22.75,190.31,-14.44,0.05,12.3,-0.28
6220,26,199.5,-12.75,-0.32,12.82,-1.21
6230,10.81,207.94,-11.25,-0.77,12.95,-1.78
6240,-16.25,218.62,-7.87,-4.1,13.43,-0.86
6250,-37.06,228.06,8.25,-5.29,12.65,-0.36
6260,-58.13,227.44,32.69,-5.95,11.56,0.08
6270,-76.87,219.06,57.81,-6.95,9.39,0.88
6280,-89.12,205.87,79.25,-7.65,8.36,0.75
6290,-97.44,190.12,94.44,-8.44,7.48,0.35
6300,-110.81,170.81,109.75,-9.53,5.18,0.47
6310,-131.81,146.69,129.19,-10.15,4.1,1.1
6320,-156.75,116.06,146.19,-10.6,3.08,1.56
6330,-168.62,81.31,161.37,-11.11,1.89,1.55
6340,-167.44,43.81,172.19,-11.25,-1.04,0.98
6350,-171.06,3.25,175.31,-12.07,-1.94,0.68
6360,-179.44,-31.37,171.44,-12.08,-2.97,0.37
6370,-172.37,-56.94,168.56,-12.33,-3.83,-0.58
6380,-148.25,-69.19,169.37,-12.09,-3.56,-1.07
6390,-95.44,-63,189.62,-10.09,-4.9,-2.2
6400,-56.25,-55,206.37,-6.53,-8.81,-3.68
6410,-94.56,-64.5,166.81,-6.38,-9.14,-0.64
6420,-142.12,-75.06,110.75,-6.61,-8.69,1.19
6430,-124.94,-90.81,73.94,-6.32,-8.8,1.15
6440,-82,-108,43.5,-6.16,-9.33,-0.73
6450,-55.75,-127.56,15.63,-5.94,-9.64,-1.61
6460,-39.5,-137.19,-11.88,-5.5,-9.64,-2.32
6470,-30.25,-129.94,-40.31,-5.15,-9.5,-2.29
6480,-29.81,-125.56,-64.19,-3.49,-8.95,-1.29
6490,-27.06,-133.31,-84.62,-2.86,-8.39,-0.41
6500,-11.81,-154.06,-97.62,-1.86,-8.2,-0.37
6510,11.44,-178.44,-105.44,0.68,-9.42,-2
6520,35.69,-194.69,-118.06,1.39,-9.96,-2.1
6530,73.31,-192,-140.44,4.13,-10.7,-0.96
6540,112.37,-194.56,-158.56,5.49,-10.05,-3.46
6550,130.94,-212.62,-168.56,6.81,-9.03,-6.02
6560,170.12,-196.56,-168.12,8.17,-7.72,-9.93
6570,175,-147.44,-156.44,9.09,-6.62,-11.43
6580,129.56,-79.69,-140.69,9.68,-5.23,-7.52
6590,101.75,-14.5,-130.87,9.43,-4.18,-5.12
6600,99.25,24.31,-124.19,9.23,-3.37,-3.67
6610,100.75,33.56,-115.62,9.55,-2.59,-3.67
6620,97.37,32.5,-116.5,9.17,-1.33,-4.36
6630,93.44,36.13,-128.75,8.54,0.41,-5.08
6640,86.75,50.69,-142.5,7.89,2.38,-5.52
6650,68.56,70.06,-149.19,5.81,6.13,-5.62
6660,50.94,98.06,-144.12,5.54,7.28,-4.85
6670,27,126.81,-130.37,4.41,8.33,-3.66
6680,-5.69,144.44,-111.31,2.29,10.07,0
6690,-19.31,159.19,-85.25,1.41,10.13,1.2
6700,-20.25,155.37,-54.63,0.97,9.9,1.47
6710,-23.56,138.12,-25.56,0.62,10.01,1.54
6720,-25.69,124.44,-1.62,2.76,9.35,0.14
6730,-17.19,117,15,0.58,8.19,-1.83
6740,-33.25,123.81,14.56,-0.77,7.66,-1.25
6750,-67.87,125.69,10.38,-1.3,8.94,2.78
6760,-70,121.12,7.44,-1.99,9.35,3.35
6770,-37.69,111.44,8.81,-3.35,9.4,2.69
6780,-20,87.12,18.31,-6.93,9.75,1.89
6790,-29.06,65.25,30,-8.71,10.45,1.92
6800,-47.38,39.94,52,-8.99,10.89,2.09
6810,-54.81,19.94,93.81,-8.69,10.48,1.89
6820,-55.25,3.37,145.37,-8.1,8.08,0.31
6830,-61,-14.13,189.87,-8.32,6.91,-0.64
6840,-76.12,-25.87,224.81,-8.79,5.36,-1.45
6850,-95.25,-26.94,248.37,-8.85,1.85,-1.39
6860,-120.25,-22.94,255.06,-9.38,1.09,-0.74
6870,-136.12,-16,255.62,-10.22,0.21,-0.15
6880,-131.56,-7.56,255.25,-10.58,-0.85,0.12
6890,-115.25,-2.12,251.56,-8.4,-3.22,0.88
6900,-98.94,-6,239.31,-8.63,-3.76,1.13
6910,-81.31,-13.13,219.5,-8.9,-4.17,1.3
6920,-62.69,-21.06,199.06,-7.72,-5.02,1.08
6930,-52.69,-30.19,177.06,-7.39,-4.95,0.81
6940,-55.25,-39.56,153.31,-7.3,-4.67,0.81
6950,-64.44,-47.75,130.69,-7.33,-4.41,0.89
6960,-75.62,-56.25,113.87,-7.16,-3.99,1.13
6970,-87.5,-65.87,101.69,-6.93,-3.79,1.38
6980,-95.62,-79.25,90.69,-7.28,-3.56,1.73
6990,-91.44,-101.94,80.25,-5.35,-3.71,0.69
7000,-63.06,-129.69,73.94,-3.91,-4.61,-0.7
7010,-33.44,-154.94,58.94,-3.82,-4.35,-2.46
7020,-15.06,-167.19,40.81,-2.79,-6.74,-7.09
7030,-17.75,-158.5,26.94,-2,-7.99,-7.42
7040,-66.62,-151.56,6.69,-0.55,-8.51,-6.73
7050,-101.19,-138.37,-19.56,0.82,-8.87,-5.64
7060,-85.62,-105.19,-48.06,2.77,-9.8,-3.84
7070,-48.81,-71.75,-76.62,2.92,-9.89,-3.21
7080,-22.19,-54.63,-102.62,2.69,-9.94,-3.07
7090,-9.19,-49.75,-120.5,3.69,-10.13,-3.37
7100,1.44,-43,-138.5,3.73,-9.76,-2.84
7110,7.44,-41.69,-161.44,3.92,-9.1,-3.26
7120,13.88,-45,-179.44,4.78,-8.64,-3.82
7130,22.31,-38.19,-196.94,5.19,-6.38,-3.53
7140,32.06,-26.12,-212.5,5.51,-5.62,-3.15
7150,48.38,-16,-220.62,6.18,-5.11,-3.24
7160,62.25,-9.25,-227,6.54,-2.54,-4.41
7170,62.5,-1.94,-233.69,6.51,-0.97,-4.7
7180,51.75,7.81,-237,6.53,0.52,-4.93
7190,38.75,20.56,-238.06,6.4,2.01,-5.13
7200,25.56,39.63,-236.69,5.85,4.93,-5.15
7210,-6.31,60.38,-234.25,5.36,6.43,-3.92
7220,-31.81,80,-229.37,5.14,8.07,-2.31
7230,-30.31,97.69,-219,4.24,9.95,-1.49
7240,-14.06,107.94,-203,3.09,9.88,-2.5
7250,-18,122.25,-187.12,1.94,10.02,-2.41
7260,-42.88,151.75,-175.44,-0.11,10.4,0.28
7270,-65.94,180.69,-154.06,-2.14,11.09,2.27
7280,-70.81,201.37,-121.75,-5.61,12.94,5.73
7290,-33.56,212.25,-49.63,-5.85,12.74,6.89
7300,22.75,203.62,45.69,-1.66,10.22,5.58
7310,39.88,170.75,114,-1.2,9.62,4.97
7320,39.88,170.75,114,-2.17,9.19,2.77
7330,-50.31,12.13,190.12,-4.03,6.83,-1.56
7340,-101.31,-20.12,221.56,-4.89,5.39,-2.39
7350,-133.75,-23.37,243.75,-6.43,4.07,-2.18
7360,-141.69,-10.75,254.87,-7.51,2.79,-1.54
7370,-118.81,14.31,261.06,-6.26,-0.25,-0.2
7380,-85.37,50.38,256.37,-5.63,-0.84,0.73
7390,-65.69,75.44,234.37,-5.77,-0.51,1.95
7400,-63.25,77.81,204.31,-6.46,1.14,4.36
7410,-61.25,57.25,181.44,-7.28,2.11,4.69
7420,-43.56,29,170.69,-8,2.57,4.23
7430,-22.81,1.06,173.25,-8.03,2.45,3.76
7440,-7.69,-24.62,181.62,-7.78,0.78,1.54
7450,9.75,-37.13,189.56,-8.46,-0.43,-0.1
7460,1.25,-34.75,190.06,-8.54,-1.3,-0.42
7470,1.25,-34.75,190.06,-8.07,-2.31,2.19
7480,-45.44,-32.56,182.75,-7.99,-2.64,3.28
7490,-108.12,-60.38,158.62,-7.76,-3.09,3.78
7500,-93,-80.31,143.75,-6.96,-4.01,3.83
7510,-65,-104.56,123.81,-6.31,-4.32,3.21
7520,-65,-104.56,123.81,-6.24,-4.33,1.94
7530,-27.25,-137.31,104.5,-6.4,-4.16,0.64
7540,30,-250.44,91.56,-7.08,-4.13,-5.5
7550,46,-204.25,73.37,-5.78,-4.67,-7.46
7560,34.5,-159.56,70.12,-4.48,-5.97,-8.38
7570,34.5,-159.56,70.12,-2.93,-6.03,-5.57
7580,-10.25,-113.19,52.56,-3.54,-5.22,-3.68
7590,-34.25,-47.44,-19.12,-4.14,-4.61,-2.85
7600,-10.69,-48.44,-37.19,-4.38,-4.49,-3.03
7610,-10.31,-67.37,-38.5,-3.39,-5.86,-4.31
7620,-10.31,-67.37,-38.5,-2.61,-7.59,-5.15
7630,-33.94,-92.69,-27.69,-1.04,-9.76,-5.59
7640,-67.31,-100.87,-21.12,0.37,-12.09,-4.02
7650,-69.87,-85.81,-40.63,1.45,-12.54,-2.68
7660,-50.25,-72.69,-70.56,2.44,-12.6,-1.49
7670,-50.25,-72.69,-70.56,3.11,-12.35,-0.93
7680,-14.38,-69.62,-108.81,4.01,-10.52,-0.87
7690,43.06,-76.62,-188.25,4.14,-8.83,-0.83
7700,51.75,-79.19,-219.75,4.23,-6.8,-1.1
7710,44.81,-83.87,-239,5.25,-3.55,-1.72
7720,44.81,-83.87,-239,5.25,-3.55,-1.72
7730,29.37,-89.25,-254,5.33,-1.98,-2.46
7740,59.13,-38.19,-282.5,5.41,1.51,-4
7750,77.06,6.19,-278.69,5.59,5.23,-2.03
7760,92.81,33.06,-257.06,5.34,6.25,-1.52
7770,92.81,33.06,-257.06,5.34,6.25,-1.52
7780,117.94,42.19,-223.62,5.09,7.06,-1.61
7790,144.25,29.62,-133.12,6.44,4.86,-4.86
7800,80.81,0,-97,6.34,4.09,-5.44
7810,10.69,2.75,-89.5,6.26,3.72,-5.1
7820,10.69,2.75,-89.5,6.26,3.72,-5.1
7830,11.94,46.75,-82.56,5.97,3.18,-5.07
7840,18.31,104.44,-82.5,4.41,3.96,-5.17
7850,5.87,128.56,-83.12,3.81,5.79,-4.71
7860,-9.25,152.12,-87.87,3.43,7.05,-4.24
7870,-9.25,152.12,-87.87,3.43,7.05,-4.24
7880,-13.75,165.06,-92.12,3.59,7.17,-4.31
7890,-45.88,162.69,-113.81,-0.32,7.28,-4.01
7900,-53.88,183.06,-120,0.28,7.97,-4.04
7910,-36.75,213.12,-93.31,-4.07,7.58,-5.99
7920,-36.75,213.12,-93.31,-4.07,7.58,-5.99
7930,-57.63,249.44,-54.81,-8.39,9.62,-0.74
7940,-115.94,273.25,-11.38,-6.47,3.67,0.53
7950,-151.12,285.62,73.06,-8.16,5.79,7.17
7960,-203.37,308.87,81.37,-8.01,6.79,9.81
7970,-275.19,332.19,17.5,-8.01,6.79,9.81
7980,-263.5,227.25,35.56,-8.11,7.26,10.05
7990,-179.19,153.31,69.44,-10.29,7.53,7.74
8000,-93.31,101.81,93.19,-10.59,7.08,5.84
8010,-22.31,52.25,125.69,-10.43,5.65,2.69
8020,26.12,6.12,169.69,-10.43,5.65,2.69
8030,30.37,-27.19,211.31,-9.65,1.77,-2.08
8040,-21.56,-43.88,232.56,-9.36,0.15,-0.96
8050,-102.31,-50.69,236.44,-10.14,-0.34,2.13
8060,-166,-54.94,229.87,-10.2,-0.9,2.67
8070,-177.81,-58.69,223.87,-10.2,-0.9,2.67
8080,-152.81,-67.69,225.19,-10.1,-1.85,2.31
8090,-130.06,-86.56,229.56,-8.6,-4.61,0.15
8100,-132.31,-111.19,227,-9.01,-4.42,-0.43
8110,-157,-137.87,213.81,-8.83,-4.25,-0.28
8120,-180.75,-165.44,195.5,-8.83,-4.25,-0.28
8130,-176.37,-182.06,182.44,-8.66,-4.66,0.14
8140,-148.94,-203.19,177.12,-6.39,-5.45,-0.69
8150,-108.06,-223.56,169.5,-7.86,-5.2,-0.01
8160,-53.38,-183.75,134.12,-7.3,-6.42,-2.93
8170,-3.62,-167.81,99,-7.3,-6.42,-2.93
8180,26.19,-191.75,81.19,-6.8,-7.51,-5.55
8190,9.06,-212.94,60.63,-5.21,-7.89,-8.85
8200,-43.5,-220.94,30.62,-4.76,-7.74,-8.44
8210,-82.87,-198.56,-0.94,-4.41,-7.63,-7.63
8220,-91.12,-149.75,-32.13,-4.41,-7.63,-7.63
8230,-79.5,-96.31,-61.25,-4.03,-7.2,-5.29
8240,-70.37,-62.06,-82,-2.85,-7.93,-3.82
8250,-65.69,-49.31,-95.56,-2.31,-8.2,-3.49
8260,-62.38,-48.69,-110.31,-0.93,-7.24,-1.67
8270,-56.69,-46.63,-132.75,-0.93,-7.24,-1.67
8280,-47.19,-43.63,-157.62,-0.56,-6.25,-0.83
8290,-29.56,-46.69,-181.56,0.28,-3.3,-1.87
8300,1.06,-50,-198.31,0.71,-3.18,-2.33
8310,26.06,-53.69,-202.69,1.38,-3.51,-2.24
8320,30.31,-53.75,-198,1.38,-3.51,-2.24
8330,22.94,-50.25,-189.12,2.36,-4.1,-1.59
8340,16.94,-47.69,-181.94,5.49,-5.32,1.52
8350,23.06,-51.63,-181.69,5.8,-4.79,1.79
8360,43,-66,-190.75,6.29,-2.83,-0.78
8370,75.12,-89.56,-201,6.29,-2.83,-0.78
8380,114.75,-120.25,-207.69,6.42,-1.61,-3.59
8390,152.5,-148.44,-211.69,5.9,1.32,-8.26
8400,181.31,-154.62,-209.87,5.42,2.25,-12.73
8410,193.94,-142.5,-189.25,5.79,1.46,-13.76
8420,185.75,-108.06,-149.37,5.79,1.46,-13.76
8430,146.62,-50.31,-105.56,6.62,0.01,-12.9
8440,93.75,14.31,-78.12,7.25,-2.07,-5.3
8450,78.94,77,-74.06,7.13,-1.1,-3.62
8460,89.31,116.94,-88.62,6.73,1.26,-1.9
8470,91.06,130.81,-119.94,6.73,1.26,-1.9
8480,103.19,132,-153.94,5.17,7.01,-1.12
8490,127.19,129.69,-173.75,3.21,10.89,-2.61
8500,128.06,123.12,-169.81,3.25,10.67,-4.53
8510,99.44,112.62,-140.31,3.08,9.16,-6.99
8520,83.87,107.69,-96.62,3.08,9.16,-6.99
8530,74.19,130.31,-62.13,2.27,9.17,-6.22
8540,36,157.37,-38.19,1.27,9.34,-1.84
8550,33,181.37,-8.38,1.38,8.67,-0.72
8560,55.75,193.87,15.56,1.35,8.55,0.13
8570,69.31,189,22.56,0.78,9.31,0.69
8580,83.31,176.25,18.12,-1.55,11.63,0.16
8590,103.56,158.37,15.44,-2.99,12.33,-1.26
8600,106.5,141,34.38,-4.19,12.53,-2.67
8610,77.19,128.94,69.31,-5.86,11.44,-3.87
8620,29.62,126,110.81,-6.44,9.98,-3.5
8630,-13.19,132.56,149.44,-6.55,8.17,-2.25
8640,-35.88,143.44,176.06,-7.17,6.9,-0.92
8650,-31.19,151.19,188.87,-7.52,4.23,-0.05
8660,-29,148,191.12,-7.75,3.62,0.35
8670,-45.94,134.81,185.31,-8.25,3.49,0.93
8680,-55.44,112.75,168.44,-9.06,2.75,0.52
8690,-55.44,112.75,168.44,-9.27,2.4,0.26
8700,-70.5,103.56,161.81,-9.87,2.3,0.33
8710,-93.62,92.81,157.19,-10.05,1.88,0.22
8720,-108.62,86.5,157.06,-9.93,0.4,1.26
8730,-114.06,84.69,154.06,-10.05,0,1.82
8740,-103.5,82.5,148.56,-9.85,-0.52,2.23
8750,-95.19,74.56,142.12,-9.29,-1.33,3.3
8760,-98.25,57.13,132.75,-9.11,-1.53,3.61
8770,-99.44,35.63,120.62,-8.72,-1.83,3.51
8780,-114.44,-25.62,82,-8.66,-1.85,3.07
8790,-114.44,-25.62,82,-9.03,-1.41,3.2
8800,-142.37,-57.38,60.69,-8.98,-1.05,3.55
8810,-170.81,-86.75,45.5,-9.28,-0.8,4.1
8820,-189,-119.06,38.75,-9.26,-1.17,4.49
8830,-166.87,-217.12,68.31,-9.19,-2.54,3.38
8840,-166.87,-217.12,68.31,-8.88,-4.29,2.6
8850,-146.56,-265.5,92.06,-6.67,-7.9,-1.1
8860,-137.25,-349.56,125,-7.09,-10.16,-5.59
8870,-131.12,-360.06,119.44,-4.26,-11.14,-8.95
8880,-134.62,-309.62,16.44,-3.14,-11.05,-10.9
8890,-134.62,-309.62,16.44,-2.61,-10.18,-15.6
8900,-99.06,-222.44,-41.56,-2.3,-9.99,-16.38
8910,-105.56,-112.12,-83.37,-2.22,-9.44,-13.3
8920,-153.62,-11.13,-106.06,-2.05,-8.57,-2.95
8930,-183.62,63.06,-106.25,-1.33,-8.98,2.01
8940,-183.62,63.06,-106.25,-0.47,-10.1,4.91
8950,-143.31,28.37,-104.37,0.84,-11.56,5.65
8960,-39.81,-98.25,-155.44,2.1,-12.56,3.7
8970,7.25,-134.56,-199.06,1.96,-12.09,1.65
8980,44.63,-142.37,-239.81,2.33,-11.33,-0.94
8990,44.63,-142.37,-239.81,3.05,-7.23,-4.42
9000,61.75,-123.75,-305.37,3.33,-4.97,-5.34
9010,71.25,-102.81,-319.94,3.87,-2.93,-6.57
9020,73.06,-74.25,-322.37,3.94,2.17,-8.91
9030,62,-41.44,-303.81,3.77,4.23,-9.88
9040,62,-41.44,-303.81,3.53,5.44,-10.77
9050,43.69,-0.69,-262.75,3.52,5.69,-11.57
9060,-17.75,103.56,-161.37,5.16,3.28,-11.49
9070,-37.5,165.94,-145,5.66,2.86,-9
9080,-25.25,218.19,-150.12,5.65,3.37,-5.99
9090,-9.13,245.94,-154.69,4.11,5.83,-0.98
9100,-4.94,248.37,-145.12,3.53,6.66,0.53
9110,-10.69,237.31,-124.5,3.37,7.39,1.75
9120,-11.06,215.5,-98.81,3.67,7.94,2.96
9130,3.06,185.62,-71.44,4.42,8.73,4.12
9140,31.75,154.87,-44.69,4.56,8.97,3.61
9150,63.75,131.81,-19.12,4.53,9.05,2.31
9160,84.56,126.81,2.44,4.14,8.81,-0.52
9170,88.12,134.94,21.19,3.56,8.81,-1
9180,82.69,146.19,40.19,2.77,8.7,-0.92
9190,66.5,152.5,61.13,2.12,8.14,-1.1
9200,36.44,152.56,80.44,1.58,6.06,-0.97
9210,10.88,150,92.94,1.26,5.11,-0.72
9220,5.56,146.94,95,1.17,4.48,-0.35
9230,25.25,143.94,86.25,0.79,4.66,0.24
9240,70.31,147.81,73.62,-0.09,5.39,0.11
9250,116.81,155.12,65.31,-1.14,6.02,-0.82
9260,131.75,160.94,66.25,-2.85,6.59,-2.58
9270,109.37,162.87,73.5,-3.7,6.66,-3.39
9280,64.81,165.06,82.81,-4.48,6.77,-3.78
9290,17.31,170.44,91.62,-5.26,6.82,-3.62
9300,-21.12,177.62,101.69,-7.01,6.76,-2.13
9310,-50.06,183.87,114.56,-7.83,6.41,-1.63
9320,-80.75,184.75,128.12,-8.46,5.72,-1.06
9330,-107.94,180.81,138.06,-9.2,3.46,1.43
9340,-112.25,182.19,138.44,-8.12,1.9,2.1
9350,-108.31,171.62,122.06,-8.17,0.59,2.34
9360,-98.56,138.81,98.87,-8.29,0.52,2.81
9370,-79.81,88.94,85,-8.93,1.53,3.19
9380,-77.62,38.88,78.69,-9.4,2,2.25
9390,-91.06,3.81,80.62,-10.09,2.41,1.55
9400,-106.25,-18.81,91.56,-9.78,0.66,-0.34
9410,-127.37,-30.25,98.69,-9.47,-0.63,-0.7
9420,-145.19,-32.75,98.19,-9.15,-1.68,-0.29
9430,-144.25,-33.19,90.81,-8.95,-2.42,0.81
9440,-128.12,-42.38,80.87,-8.5,-3.64,2.53
9450,-113.87,-69.31,69.69,-8.32,-4.14,2.57
9460,-104.75,-110.87,62.19,-8.4,-4.59,1.87
9470,-98.31,-163.19,66.37,-8.78,-5.91,-0.87
9480,-112.75,-240.5,85.5,-8.39,-6.9,-1.6
9490,-130.25,-215.25,72.56,-5.14,-9.35,-5.24
9500,-147,-146.69,23.75,-6.38,-10.92,-6.44
9510,-144.75,-86.62,-43.69,-3.31,-10.15,-1.75
9520,-91.75,-54.31,-108.19,-3.73,-7.61,2.4
9530,-21.19,-73.94,-137.56,-4.57,-5.28,4.08
9540,-7.37,-134.37,-127.19,-4.76,-4.03,1.45
9550,-30.75,-190.25,-102.69,-3.31,-5.53,-0.41
9560,-36.5,-210.31,-93.06,-1.56,-7.35,-2.11
9570,-25.5,-207.44,-103.62,1.43,-9.12,-4.88
9580,-4.25,-185.31,-126.44,2.15,-8.76,-5.37
9590,24.19,-152.75,-145.87,2.84,-8.14,-5.54
9600,47.5,-120.44,-158.81,3.68,-7.18,-4.86
9610,66.37,-97.25,-163.75,4.67,-4.47,-2.51
9620,78,-85.31,-160.75,5.36,-3.2,-1.54
9630,77.56,-84,-151.06,5.69,-1.77,-0.79
9640,73.94,-89.25,-129.62,6.48,-0.9,-0.33
9650,71.06,-101.44,-107.75,7.42,-1.87,-0.77
9660,81.31,-113.19,-99.37,8.45,-2.53,-1.56
9670,101.87,-115.19,-99.37,8.96,-3.01,-4.2
9680,109.81,-91.56,-101.94,8.94,-3.08,-9.47
9690,107.31,-43.88,-104.81,9.16,-2.99,-10.38
9700,104.25,15.06,-113.69,9.13,-2.47,-10.3
9710,102.12,70.12,-122.87,7.59,0.49,-7.51
9720,94.5,106.87,-121.69,6.63,1.88,-6.03
9730,76,124.81,-107.62,5.84,2.64,-4.96
9740,51.5,132.94,-88.75,5.66,2.71,-3.92
9750,38.31,136.94,-77.56,6.27,2.3,-1.48
9760,42.25,136,-77.12,6.49,2.5,-0.84
9770,60.5,130.5,-84.75,6.53,3.63,-0.63
9780,85.12,120.81,-93.12,6.1,7.39,-3.15
9790,99.94,120.06,-95.5,5.25,8.9,-5.97
9800,93.62,142.75,-89.12,4.28,9.88,-8.42
9810,60.44,181.31,-77.5,2.02,11.2,-9.36
9820,15.81,222.19,-61.44,0.89,11.36,-8.02
9830,-23.25,252.25,-46.63,-0.01,11.41,-5.55
9840,-32.56,270.62,-40.25,-1.26,11.46,-2.8
9850,-33,271.5,-12.31,-4.35,10.51,1.37
9860,-26.94,258.5,17.44,-4.67,9.58,1.74
9870,-36.44,228.5,34,-5.47,8.83,1.95
9880,-58.94,188.62,47,-6.53,8.14,2.45
9890,-72.81,152.37,61.75,-7.37,8.04,2.43
9900,-76.81,120.87,80.69,-8.29,7.6,1.37
9910,-92.25,101.12,98.75,-8.76,6.71,0.49
9920,-110.37,84,113.81,-9.71,5.21,0.95
9930,-113.62,69.31,127.62,-9.88,4.14,0.72
9940,-118.75,53.38,136.12,-10.04,2.86,0.17
9950,-131.5,37.56,137.5,-10.66,0.55,0.05
9960,-141.19,22.06,135.37,-10.76,-0.48,0
9970,-145.44,8.69,127.75,-10.67,-1.48,-0.1
9980,-140,3.56,111.37,-10.38,-1.95,0.05
9990,-124.37,1.94,91.81,-10.58,-1.79,0.9
10000,-106.87,-0.06,80,-10.47,-1.86,0.66
