timestamp,gyrox,gyroy,gyroz,accx,accy,accz
10,47.63,2.19,-11.88,0,0,0
20,88.69,-12.75,-24.81,0,0,0
30,102.81,-18.69,-35.25,0,0,0
40,85.87,-15.81,-38.63,8.59,-5.92,-18
50,46.06,-4,-36.31,8.11,-5.88,-19.21
60,14.44,17.56,-29.94,9.03,-6.19,-19.29
70,1.44,39,-24.31,9.72,-6.37,-18.91
80,8.25,59.5,-22.37,10.18,-6.55,-18.44
90,28.06,78.81,-23.19,9.93,-6.68,-17.59
100,47.38,95.19,-22.87,10.03,-7.18,-16.98
110,69.69,112.25,-24.62,10.26,-7.49,-15.76
120,95.81,126.69,-20.44,8.87,-8.32,-14.4
130,99.06,127.06,-9.44,10.42,-10.2,-13.16
140,88,102.06,-10.63,10.33,-11.14,-12.26
150,96.94,79.75,-26.5,10.67,-11.95,-11.78
160,120.12,66.12,-54.25,9.03,-12.36,-10.64
170,140.06,59.25,-73,7.5,-12.71,-10.1
180,134.62,47.38,-78,6.71,-13.59,-9.71
190,108.5,32.25,-82.12,6.36,-15.07,-9.41
200,83.44,25.12,-94.94,6.23,-14.92,-9.62
210,57.81,30.62,-104.37,3.21,-14.68,-9.01
220,46.13,39.06,-102.56,3.14,-15.89,-7.97
230,50.94,45.69,-118.75,4.5,-16.42,-5.2
240,71.81,45,-168.81,2.28,-15.97,-6.51
250,59.13,51.56,-206.5,1.17,-14.45,-6.71
260,59.13,41.88,-248.25,1.19,-12.08,-5.58
270,55.25,-1.87,-294.69,-0.2,-9.77,-5.51
280,46.81,-46.38,-326,-1.62,-7.14,-6.7
290,44.63,-81.81,-344.81,-1.79,-4.81,-7.28
300,76.31,-107.44,-360.5,-1.58,-0.56,-8.36
310,128.81,-140.44,-370.75,-0.97,1.71,-8.85
320,198.69,-194.44,-372.37,-0.66,3.71,-9.93
330,247.19,-264.69,-363.75,-2.26,6.49,-15.88
340,268.25,-235.62,-329.94,-2.17,7.39,-19.55
350,281.25,-174.94,-281,-3.64,7.99,-21.73
360,247.94,-131.75,-208.12,0.33,8.75,-25.7
370,149.87,-91.37,-132.75,0.13,8.59,-25.92
380,49.44,-29.19,-70.25,0.99,8.37,-23.09
390,-10.88,16.62,-23.19,2.33,7.47,-18.91
400,-47.44,22.44,6.12,3.46,5.04,-13.59
410,-69.75,1.31,18.81,4.21,4.72,-12.01
420,-51.94,-30.81,20.25,5.24,5.51,-10.2
430,32,-75.19,30,4.78,5.92,-12.9
440,111.37,-86.44,37.06,7.96,2.58,-20.7
450,35.94,-68.31,14.38,10.13,2.24,-22.12
460,-48.13,-48.63,-2,9.08,4.02,-19.24
470,-42.81,-5.06,-13.81,11.66,4.45,-15.03
480,-42.81,-5.06,-13.81,11.66,5.52,-12.46
490,-8.69,-10.38,-28.37,11.49,7.47,-10.75
500,33.31,-43.44,-12.81,12.87,10.59,-11.97
510,66,-69.37,16.44,12.81,10.86,-15.07
520,41.81,-83.69,62.5,13.07,10.42,-17.96
530,41.81,-83.69,62.5,13.42,9.27,-20.37
540,-100.06,-76.69,162.06,14.86,5.87,-20.88
550,-150.75,-72.81,192.81,18.2,1.13,-22.26
560,-167.75,-58.56,178.5,18.01,0.79,-20.2
570,-109.12,-23.81,172.56,17.41,0.86,-20.61
580,-109.12,-23.81,172.56,16.77,0.56,-21.04
590,-105.56,-4.69,182.75,15.94,0.69,-20.35
600,-126.69,43.5,238.19,15.12,-1.78,-19.15
610,-125.56,63.19,266.62,14.31,-2.82,-17.82
620,-107.87,77,290.31,13.7,-4.02,-16.47
630,-107.87,77,290.31,12.95,-5.33,-15.46
640,-66.81,92.06,306,11.81,-8.59,-14.26
650,6.81,129.25,319.31,11.57,-10.9,-13.55
660,-29.69,98.37,312.19,11.14,-12.39,-13.22
670,-60.63,76.75,294.44,10.91,-14.59,-13.23
680,-60.63,76.75,294.44,10.91,-14.59,-13.23
690,-53.31,67.56,269.19,10.26,-16.62,-12.83
700,32.5,53.19,212.12,10.83,-17.87,-13.45
710,42.81,54.13,164.12,11.31,-18.37,-16.63
720,34.56,64.31,114.19,11.1,-17.33,-15.53
730,34.56,64.31,114.19,11.1,-17.33,-15.53
740,70,85.87,72.31,9.62,-15.43,-16.57
750,53.63,122.5,16.56,8.27,-13.87,-18.05
760,-34.5,132.81,8.75,8.25,-11.69,-13.74
770,-40.38,133.12,17.37,7.29,-10.81,-10.59
780,-40.38,133.12,17.37,7.29,-10.81,-10.59
790,1.81,118.37,23.44,8.04,-13.61,-10.63
800,5.31,73.12,-21.44,7.8,-13.65,-10.75
810,41.88,59.88,-48.88,7.45,-12.75,-9.46
820,92.37,46,-76.87,7.21,-12.05,-9.67
830,92.37,46,-76.87,7.21,-12.05,-9.67
840,121.62,22.69,-96.06,7,-11.28,-10.21
850,126.87,2.56,-118.12,6.31,-10.04,-13.57
860,95.44,6.12,-124.37,5.85,-9.66,-14.23
870,42.13,9.88,-125.44,5.68,-9.32,-14.31
880,42.13,9.88,-125.44,5.68,-9.32,-14.31
890,-2.31,22.75,-122.81,5.2,-8.78,-14.06
900,-38.81,52.19,-119.44,5.44,-8,-10.46
910,-28.31,50.63,-117.31,6,-7.63,-6.96
920,27.19,40.38,-124.12,4.68,-6.48,-6.41
930,27.19,40.38,-124.12,4.68,-6.48,-6.41
940,110.87,37.69,-122.62,5.81,-7,-8.59
950,62.81,-14.25,-119.37,5.41,-5.68,-10.31
960,60.44,-11.56,-122.06,6.02,-6.08,-11.37
970,60.44,-11.56,-122.06,5.77,-5.37,-10.59
980,46.56,-8.44,-130.94,5.77,-5.37,-10.59
990,57.56,0.56,-136.69,5.28,-3.76,-10.51
1000,53,2.56,-135.31,4.95,-2.68,-8.9
1010,34.81,-1.69,-132,5.47,-2.68,-8.25
1020,47.5,-9.75,-124.06,6.11,-3.18,-9.5
1030,56.94,-23.69,-118.94,6.11,-3.18,-9.5
1040,40.44,-36.5,-120.94,6.51,-2.91,-9.6
1050,26.94,-44.94,-128.75,7.07,-0.52,-9.06
1060,39.88,-48.06,-138.94,7.06,0.24,-9.8
1070,55.25,-47.63,-144.69,7.07,1.17,-10.11
1080,45.44,-50.63,-142.37,7.07,1.17,-10.11
1090,26.37,-57.44,-128.19,7.05,2.05,-10.4
1100,13.63,-66.31,-105.31,8.22,0.99,-11.5
1110,9,-77.25,-84.94,8.69,0.75,-11.88
1120,21.25,-81.56,-75.44,9.57,1.38,-13.26
1130,62.5,-75.06,-73.69,9.57,1.38,-13.26
1140,102.19,-61.63,-73.25,9.67,1.68,-14.85
1150,102.31,-44,-71.19,9.74,3.58,-16.15
1160,68.87,-22.75,-64.12,9.53,3.32,-16.13
1170,20.25,-5.5,-47.38,9.4,2.92,-16.09
1180,-42.31,11.19,-30.94,9.4,2.92,-16.09
1190,-117.19,12.88,-13.25,9.77,3.76,-13.11
1200,-125.12,0.31,12.13,10.3,1.45,-12.14
1210,-114.44,-15.31,24.94,14.66,0.1,-11.96
1220,-85.12,-20.56,14.38,14.36,1.93,-12.94
1230,-37.56,-5.87,-54.13,14.36,1.93,-12.94
1240,51.56,34.25,-116,12.36,3.68,-15.27
1250,120.12,88.5,-135,12.98,8.54,-12.94
1260,104.44,88.81,-99.37,12.56,8.22,-12.9
1270,23.94,73.62,-63.81,13.23,8.16,-11.2
1280,-63.44,71.12,-28.5,13.23,8.16,-11.2
1290,-119.31,62.19,8.69,13.77,8.59,-8.95
1300,-113.94,52.06,43.94,15.81,7.55,-3.91
1310,-73.06,33.63,68.69,16.57,6.33,-3.66
1320,-20.25,-0.75,82.19,17.8,2.81,-8.63
1330,23,-31.62,82.37,17.8,2.81,-8.63
1340,20.56,-43.88,67.06,17.4,2.9,-10.38
1350,-14.81,-44.25,57.81,15.98,3.89,-11.61
1360,-53.25,-38.94,68.56,14.25,4.61,-9.88
1370,-83.75,-23,91.69,13.7,4.51,-8.57
1380,-70.69,-4.06,129.69,13.7,4.51,-8.57
1390,-17.44,9.25,165.62,15.5,1.85,-7.14
1400,-59.5,-30.31,143.81,15.55,-0.26,-9.33
1410,-114.19,-29,88.75,15.35,1.82,-7.94
1420,-28.81,8.75,75.81,15.59,1.37,-9.83
1430,26.06,13.13,90.62,15.59,1.37,-9.83
1440,-38.31,-9.56,106,13.99,1.9,-11.19
1450,-83.44,-8.75,132.62,13.08,1.52,-10.67
1460,-84.19,1.12,173.31,13.1,-2.4,-11.12
1470,-94.69,-3.62,210.69,13.37,-4.33,-11.31
1480,-108.06,-7.37,232.44,13.37,-4.33,-11.31
1490,-118,-7.62,235.5,13.77,-5.67,-10.93
1500,-110.69,-7.62,225.5,13.26,-7.02,-9.87
1510,-83,-5.69,213.81,12.84,-7.29,-9.62
1520,-63.38,-8.06,204.12,12.55,-7.45,-9.95
1530,-61.38,-22.56,199.75,12.55,-7.45,-9.95
1540,-87.94,-48.38,199.94,11.85,-8.27,-10.38
1550,-108.81,-76.19,200.81,11.3,-8.86,-10.06
1560,-84.81,-93.44,198.37,11.04,-9.97,-10.65
1570,-40.69,-96.81,183.44,11.61,-12.07,-13.43
1580,-5.69,-86.5,151.62,11.41,-11.88,-14.1
1590,19.56,-75.31,117,10.91,-11.22,-14.76
1600,34.25,-65.44,92.87,10.15,-10.79,-15.86
1610,20.31,-51.94,77.56,9.41,-10.61,-17.12
1620,-17.19,-37.88,66.31,8.48,-10.09,-16.64
1630,-47.75,-27.81,64.44,7.72,-9.75,-15.58
1640,-60.06,-26.12,77.25,6.38,-12.25,-16.34
1650,-77.94,-24,86.56,6.51,-13.53,-15.82
1660,-81.81,-15,77.25,6.4,-14.45,-15.54
1670,-57.13,-4,53,6.51,-15.19,-14.17
1680,-0.5,-3,16.25,6.94,-16.09,-14.32
1690,56.44,-1.37,-32.06,7.27,-16.38,-15.59
1700,79,0.75,-87.06,7.01,-16.06,-16.65
1710,79.44,14.19,-135.75,5.64,-13.34,-17.74
1720,59.63,33.13,-167.44,5.45,-12,-17.35
1730,27.75,51.88,-186.37,5.53,-10.87,-16.39
1740,7.44,66.56,-198.69,5.42,-9.53,-14.53
1750,15.44,74.94,-206.12,5.38,-7.89,-12.09
1760,23.56,72.75,-212,5.48,-6.94,-11.48
1770,17.5,57.56,-213,5.52,-5.63,-10.83
1780,15.75,40.06,-207.12,5.64,-3.62,-10.69
1790,21.56,26.25,-196.5,6.02,-3.01,-10.98
1800,29,13.63,-183.87,6.37,-2.7,-11.62
1810,35.13,9.5,-171.5,6.42,-3.05,-13.4
1820,28.06,12,-161.69,6.32,-3.24,-13.13
1830,31.69,17.06,-158.62,6.08,-3.51,-14.41
1840,14.94,25.5,-161.37,6.82,-3.4,-13.66
1850,5.37,25.25,-166.25,6.74,-1.97,-10.42
1860,42.25,24.12,-171.56,6.4,-1.25,-10.36
1870,86.62,23.19,-173.5,6.39,-0.63,-10.66
1880,103.62,13.88,-170.81,6.1,0.95,-11.06
1890,111,8.56,-160.81,6.28,1.49,-11.49
1900,104.37,4,-143.94,6.45,1.65,-12.46
1910,70.87,0.19,-124.81,6.62,1.88,-12.78
1920,41.19,-1.87,-104.37,6.64,1.43,-11.79
1930,35.13,-0.06,-84.75,6.99,0.2,-11.93
1940,29.37,1.75,-76.69,7.38,-0.77,-11.79
1950,30.62,0.31,-81.25,7.89,0,-9.93
1960,66.19,-1.5,-89.75,8.23,0.89,-9.44
1970,119.69,-4.25,-97,8.4,1.62,-9.36
1980,164.37,-12.63,-100.19,8.99,2.33,-9.54
1990,194.12,-22.94,-98.69,9.49,3.68,-10.96
2000,200.31,-33.88,-88.94,10.32,0.92,-15.66
2010,122.19,-16.12,-108.37,9.29,0,-19.13
2020,-3.69,10.88,-126.25,8.7,6.14,-11.16
2030,-14,27.56,-109.44,8.74,6.46,-10.5
2040,16.81,34.13,-88.69,8.94,5.59,-11.89
2050,-6.81,27.69,-80.56,9.68,7.78,-11.36
2060,-23.5,18.94,-68.81,10.06,9.45,-11.07
2070,-8.56,16.5,-46.19,10.37,10.01,-11.87
2080,-15.75,17.69,-16.62,10.59,10.11,-12.89
2090,-63.94,20.81,14.75,11.78,9.92,-11.98
2100,-112.5,22.87,43.56,12.2,9.51,-10.59
2110,-134.44,21.62,67.37,12.13,9.07,-9.54
2120,-142.81,11.75,89.69,12.38,8.84,-7.3
2130,-135.87,-7.06,117.56,10.2,9.66,-5.99
2140,-104.25,-29.62,162.31,13.84,5.46,-7.56
2150,-134.37,-83.69,169.56,16.02,1.49,-10.18
2160,-143.81,-94.19,139.75,15.15,1.68,-10.92
2170,-88,-68.5,119.37,15.03,1.51,-11.91
2180,-60.81,-49.69,113.81,15.48,1.01,-12.74
2190,-69.75,-36.75,109.69,16.17,0.37,-12.26
2200,-66.44,-13.25,103.94,16.1,0.42,-11.71
2210,-60.38,4.12,103.31,16.19,0.48,-10.79
2220,-70.19,-6.5,109.37,16.55,0.43,-9.87
2230,-69.62,-25.69,114.06,17.51,-0.32,-10.31
2240,-51.75,-34.13,112.87,17.2,-0.37,-10.8
2250,-31.5,-38.56,114.25,16.9,-0.47,-11.49
2260,-20,-39.56,118.31,16.11,-0.98,-13.23
2270,-11.44,-29.5,122.69,15.57,-1.36,-13.63
2280,-8.63,-16.37,128.94,15.13,-1.77,-13.98
2290,-21,-10,136.44,14.44,-2.29,-13.49
2300,-30.69,-6.62,144.31,14.01,-2.5,-13.26
2310,-34.56,-7.75,154.12,13.73,-3.01,-13.25
2320,-48.5,-15.56,164.81,12.59,-3.34,-14.05
2330,-88.87,-28.81,179.37,12.49,-4.86,-14.07
2340,-124.37,-39.63,185.19,12.25,-5.41,-13.63
2350,-125.75,-39.69,182.19,12.12,-6.13,-13.72
2360,-124.75,-38.94,170.37,11.5,-6.6,-13.37
2370,-124.25,-42.25,157.06,10.86,-6.27,-12.93
2380,-109.81,-48.25,149.06,10.49,-6.23,-12.93
2390,-77.94,-53.38,142.5,10.35,-6.6,-13.16
2400,-39.13,-56.88,131.12,10.16,-7.76,-13.93
2410,-0.62,-58.81,115,9.94,-8.24,-14.26
2420,43.19,-60.94,95.81,10,-8.85,-14.39
2430,92.06,-66.94,72.75,9.59,-10.44,-17.13
2440,123.75,-68.94,43.56,9.63,-11.23,-19.15
2450,122.87,-61.88,9,9.31,-11.3,-20.29
2460,104.81,-43.63,-21.69,8.68,-10.97,-21.34
2470,81.62,-12.44,-44.5,7.56,-10.37,-22.35
2480,58.38,31.25,-59.88,7.52,-10.61,-22.05
2490,27.62,77.75,-73.75,7.46,-10.29,-21.17
2500,7.69,125.12,-89.62,6.82,-9.38,-17.19
2510,6.19,161.62,-106.06,6.59,-8.79,-14.92
2520,17.31,181,-123.37,6.53,-8.22,-12.84
2530,37.56,183.12,-137.25,6.31,-7.94,-10.27
2540,63.06,171.12,-148.31,6.87,-8.41,-9.65
2550,84.31,149.31,-165.37,7.3,-8.55,-9.57
2560,96.31,126.19,-193.06,7.39,-7.96,-9.5
2570,103.25,108.25,-217.25,6.63,-4.99,-8.16
2580,119.94,98.06,-228.06,6.59,-3.74,-7.41
2590,142.56,94.31,-229.62,6.85,-2.6,-6.44
2600,162.12,84.87,-225.44,6.48,-0.48,-5.71
2610,175.56,77,-214.12,6.32,0.11,-6.18
2620,170.87,56.5,-195.56,6.65,0.49,-6.27
2630,143.5,9.81,-169.87,6.38,1.17,-6.24
2640,117.81,-36.19,-134.69,6.47,1.51,-6.62
2650,107.25,-64.37,-101.69,6.91,0.88,-7.24
2660,109.87,-78.06,-80.37,7.22,0.36,-7.61
2670,128.25,-80.81,-68.25,7.39,-0.21,-7.86
2680,156.87,-78.25,-62.81,7.45,-0.15,-7.74
2690,188.25,-75.25,-61.06,7.48,0.07,-7.84
2700,205.19,-83.31,-55.88,7.27,0.61,-8.34
2710,199.56,-97.5,-42.31,6.98,1.77,-10.36
2720,167.75,-112.87,-21.06,6.83,1.78,-11.4
2730,113.94,-131.44,4.69,6.92,1.42,-12.57
2740,12.5,-151.62,2.37,9.06,-2.64,-13.61
2750,-99.44,-172.62,-34.75,6.27,-0.29,-11.22
2760,-63.06,-131.94,-33.19,4.49,1.5,-10.23
2770,47.56,-96.75,2.69,8.09,-1.67,-12.15
2780,77.31,-114.5,10,7.23,-1.01,-13.36
2790,62.69,-135.12,-0.06,6.56,0.17,-14.49
2800,60.5,-136.69,-1.94,7.38,0.83,-15.45
2810,51.44,-133.56,-1.31,7.72,2.2,-17.98
2820,23.12,-122.62,2.06,7.78,3.25,-18.4
2830,-13.75,-104,15,7.71,3.76,-19
2840,-57.13,-80.87,32.81,8.3,3.9,-18.61
2850,-100.25,-57.56,50.13,8.49,3.79,-17.76
2860,-130.56,-39.13,62.88,9.36,3.97,-16.13
2870,-139.81,-35.13,71.12,9.69,4.18,-14.67
2880,-124.44,-41.25,78,11.33,4.3,-11.98
2890,-89.5,-54.5,85.31,12.46,4.63,-11.01
2900,-43.63,-77.75,102,11.51,5.87,-12.41
2910,-37.13,-105.75,135.06,12.15,2.33,-15.54
2920,-35.94,-109.06,143.31,13.29,1.62,-15.83
2930,1,-105.06,145,13.48,0.93,-17.17
2940,24.25,-106.69,153,12.92,0.04,-19.23
2950,29.69,-91.44,160.75,13.93,-1.89,-22.07
2960,30.87,-60.81,162.31,14.21,-2.39,-22.69
2970,36.38,-20.12,160.62,13.9,-2.65,-23.29
2980,35.88,26.81,161.87,13.44,-3.45,-24.46
2990,7.5,72.81,167.06,13.06,-3.78,-23.81
3000,-39.06,111.5,174.62,12.53,-3.83,-21.82
3010,-64.12,141.75,183.12,11.6,-4.28,-17.24
3020,-64.12,157.37,189.62,11.22,-4.29,-15.77
3030,-55,158.81,197.75,10.94,-4.75,-15.14
3040,-50.38,155.75,207,10.29,-5.21,-14.37
3050,-45.19,144.62,221.87,9.72,-6.33,-12.59
3060,-33.44,130.5,235.87,10.2,-7.31,-11.81
3070,-18.25,114.12,248.12,9.41,-8.25,-11.63
3080,-25,65.75,279.87,9.17,-12.87,-11.8
3090,-30.56,-20.06,303.5,9.34,-15.28,-13.46
3100,33.13,-26.75,280.75,9.72,-17.07,-15.51
3110,108.5,10.94,227.62,9.91,-17.97,-16.84
3120,137.44,48,172.62,8.08,-16.61,-16.96
3130,140.94,76.25,133.56,7.44,-17.04,-17.33
3140,141.56,117.87,98.31,7.3,-17.48,-16.72
3150,128.75,149.81,64.69,6.3,-17.82,-14.47
3160,111.37,165,32.31,6.15,-17.63,-13.05
3170,104.75,168.87,0.75,5.97,-17.38,-11.89
3180,111.62,165.44,-31.87,6.09,-17.06,-11.05
3190,121,158.87,-63.06,5.31,-15.66,-10.34
3200,130.62,154.37,-91.25,5.25,-15.08,-9.64
3210,153.56,155.56,-115,5.24,-14.52,-9.21
3220,175.06,156.5,-133.31,4.54,-12.3,-8.17
3230,182.06,152.44,-141.37,4.49,-11.67,-8
3240,182.06,152.44,-141.37,4.37,-11.2,-7.49
3250,107.62,110.5,-132.94,4.64,-12.1,-6.95
3260,61.44,79.75,-127.12,4.88,-13.08,-7.27
3270,8,51.06,-134.06,4.91,-13.73,-7.33
3280,-35.06,34.31,-152.19,4.89,-13.76,-6.54
3290,-36.31,25.25,-176.31,4.44,-12.95,-4.88
3300,-36.31,25.25,-176.31,4.47,-12.38,-5.98
3310,16.25,5.44,-220.75,4.66,-11.92,-5.64
3320,27.19,-9.81,-240.31,4.27,-9.22,-6.33
3330,36.56,-18.5,-250,4.5,-7.81,-6.1
3340,24.69,-38.06,-252.5,4.37,-6.45,-6.71
3350,10.75,-54.44,-246.06,4.68,-5.27,-6.46
3360,12.69,-62.63,-236.87,5.36,-4.23,-7.57
3370,18.31,-59.31,-231.31,5.57,-3.37,-7.77
3380,17,-54.75,-227.37,5.76,-2.13,-7.45
3390,17,-54.75,-227.37,5.97,0.81,-6.29
3400,17.81,-52.81,-219.69,6.03,2.3,-5.95
3410,46.94,-69.81,-176.69,6.07,3.53,-6.28
3420,60.38,-90.12,-138.37,6.48,4.28,-6.9
3430,67,-111.94,-93.94,7.32,3.93,-8.96
3440,67,-111.94,-93.94,7.68,2.86,-10.84
3450,72.75,-122.31,-53.19,8.04,1.86,-11.96
3460,12.06,-111,-10.56,8.19,0.98,-11.73
3470,-22.31,-98.25,-4.06,8,0.87,-10.74
3480,-35.81,-86.94,-2.94,7.96,0.92,-9.89
3490,-35.81,-86.94,-2.94,7.64,1.31,-9.69
3500,-33.75,-88.19,-1.69,7.7,0.61,-10.34
3510,-21.5,-107.25,19.56,8.02,-0.41,-11.26
3520,-27.56,-116.37,25.62,8.3,-1.63,-12.23
3530,-39.81,-122.69,23.44,8.77,-3.33,-13.59
3540,-39.81,-122.69,23.44,9.27,-3.96,-16.07
3550,-44.5,-122.69,8.69,10.04,-2.33,-15.56
3560,-134.31,-105.06,-43.69,10.68,1.14,-10.67
3570,-77.87,-100,-52.25,9.19,0.96,-12.9
3580,-15.44,-92.75,-54.75,12.1,-1.18,-15.59
3590,-15.44,-92.75,-54.75,13.58,-2.31,-16.71
3600,-50.63,-100.69,-80.31,12.83,1.82,-15.28
3610,-38.38,-65.56,-156.19,12.44,3.91,-15.72
3620,16.56,-30.44,-163,11.81,5.77,-16.06
3630,37.06,-9.5,-143.94,11.24,8.58,-17.27
3640,37.06,-9.5,-143.94,11.24,8.58,-17.27
3650,15.38,2,-108.44,11.41,9.76,-16.16
3660,-41.38,28.94,-25.62,13.1,10.45,-11.89
3670,-48.88,15.5,2.62,13.7,10.89,-9.9
3680,-55.56,-8,25.06,13.95,11.47,-9.15
3690,-55.56,-8,25.06,13.95,11.47,-9.15
3700,-52.56,-31.62,46.69,14.28,11.55,-8.77
3710,-42.19,-73.19,93.19,15.96,8.48,-12.43
3720,-71,-75.75,95.31,16.54,8.18,-11.99
3730,-80.69,-66.94,85.44,16.48,9.67,-11.31
3740,-80.69,-66.94,85.44,16.48,9.67,-11.31
3750,-75.12,-73.19,86.81,16.12,10.32,-11.64
3760,-19.12,-104.12,114.19,15.66,9.41,-15.49
3770,3.25,-103.19,127.25,14.25,9.04,-19.69
3780,7.87,-81.87,146.06,12.93,8.88,-21.11
3790,7.87,-81.87,146.06,12.93,8.88,-21.11
3800,-10.63,-49.38,180.31,11.65,8.33,-21.67
3810,-48.88,-11.25,225.06,9.18,4.61,-18.68
3820,-91.19,25.25,273.19,8.97,2.39,-16.66
3830,-128.19,49.5,321.37,9.07,0.32,-14.69
3840,-158.31,48.38,361.94,9.07,0.32,-14.69
3850,-178.62,26.75,384.5,10.2,-5.66,-14.01
3860,-196,2.69,368.87,9.24,-6.33,-11.94
3870,-182.31,-16,342.19,8.35,-7.96,-12.29
3880,-130.31,-37.75,328.44,7.46,-9.38,-13.51
3890,-61.88,-58.38,320.19,7.46,-9.38,-13.51
3900,2.37,-66.87,312.19,7.03,-11.23,-15.14
3910,50.75,-61.88,300.31,8.12,-15.66,-18.13
3920,75,-53.44,273.94,7.79,-16.19,-18.52
3930,77.56,-53.69,231.75,7.44,-16.35,-19.42
3940,82.19,-59.81,185.87,7.44,-16.35,-19.42
3950,93.31,-58.06,142.81,6.26,-16.33,-22.53
3960,90.56,-38.63,107.25,5.54,-16.96,-23.64
3970,65.25,-2.19,75.25,4.66,-16.3,-21.07
3980,32.38,45.69,41.19,4.07,-15.54,-19.29
3990,13.75,93.25,5.37,4.07,-15.54,-19.29
4000,13.38,123.69,-23.94,3.97,-15.07,-17.81
4010,23.5,133.37,-46.38,4.01,-14.09,-14.48
4020,54.19,136.56,-71.31,3.69,-13.31,-13.75
4030,100.5,143.81,-104.25,3.2,-12.11,-13.34
4040,127.37,143.81,-136.81,3.2,-12.11,-13.34
4050,120.37,134.37,-158.37,2.87,-9.9,-12.53
4060,83.56,119.69,-170.12,3,-7.86,-10.36
4070,46.44,105.06,-175.81,3.14,-7.59,-10.2
4080,31.31,91.37,-174.62,4.27,-7.47,-9.65
4090,13.13,74,-172.37,4.27,-7.47,-9.65
4100,-12.31,52.69,-173.69,3.22,-6.68,-9.77
4110,8.5,53.19,-178,4,-5.75,-9.09
4120,-7.12,53.44,-184.19,3.87,-5.11,-8.16
4130,-36.69,40.69,-188.94,4.18,-4.81,-8.08
4140,-15.38,36.69,-196,4.18,-4.81,-8.08
4150,17.75,34.31,-208.56,4.5,-4.3,-8.06
4160,32.63,23.94,-225,4.54,-0.97,-6.79
4170,48.06,15.81,-244.19,4.78,0.26,-6.29
4180,71.12,13.13,-260.56,4.84,2.97,-6.87
4190,86.31,8.56,-272.19,4.84,2.97,-6.87
4200,87.31,6.25,-278.12,4.23,4.63,-6.99
4210,77.69,-12.5,-265.44,4.11,6.43,-7.57
4220,48.69,-55.75,-223.19,5.33,5.39,-8.73
4230,12.88,-126.5,-168,5.91,4.01,-10.24
4240,2.12,-179.19,-127.37,5.91,4.01,-10.24
4250,14,-222.5,-110.31,6.07,2.97,-11.4
4260,20.56,-274.81,-111.19,5.51,3.5,-17.97
4270,41.25,-238.75,-120.75,5.64,4.07,-20.32
4280,70.06,-172.19,-134.31,5.48,4.66,-22.19
4290,57.75,-119.87,-134.87,5.48,4.66,-22.19
4300,7.37,-64.25,-125.25,5.48,4.84,-20.93
4310,-43.69,-9.94,-114.44,5.97,4.33,-16.87
4320,-83.87,22.69,-106.37,6.45,4,-13.9
4330,-115.06,27.87,-105,6.35,4.61,-12.73
4340,-131.12,21.19,-109.94,6.35,4.61,-12.73
4350,-116.06,16.81,-118.12,6.34,5.28,-12.5
4360,-88.37,18.87,-128.12,6.34,6.68,-13.22
4370,-86.19,17,-139,6.34,8.24,-13.17
4380,-86.19,23.81,-144.37,6.47,9.58,-12.93
4390,-81,37.31,-144.81,6.69,10.97,-12.46
4400,-74,49.94,-138.31,6.61,13.96,-9.9
4410,-51.75,59.19,-117.56,6.7,14.8,-8.48
4420,-16.81,58.69,-83.87,7.19,14.82,-8
4430,10.75,50.56,-46.75,8.23,11.83,-9.1
4440,7.5,9.19,-10.13,9.35,9.82,-10.75
4450,-26.44,-24.62,-9.63,9.2,10.39,-10.71
4460,-31.06,-24.06,-16.5,8.7,12.01,-10.26
4470,-0.37,-5.12,-5.81,9.16,13.63,-9.54
4480,16.81,-5.94,15.06,9.51,13.5,-9.87
4490,0.56,-24.87,35.5,9.59,13.39,-10.28
4500,-16.12,-38,53,10.61,12.58,-11.91
4510,-37.19,-44.31,67.56,10.75,12.05,-12.55
4520,-80.31,-49.88,80.19,10.39,11.96,-12.17
4530,-116.12,-48.06,95.75,10.23,11.85,-9.97
4540,-119.75,-36.5,114.75,10.19,11.17,-8.69
4550,-103.75,-31.25,134.19,10.28,10.27,-7.63
4560,-79.37,-39.38,146.31,10.67,9.61,-7.06
4570,-50.5,-53.63,149.37,11.11,9.16,-7.16
4580,-26.5,-72.37,147.75,11.02,9.36,-7.65
4590,-13.56,-96.94,148.06,10.94,9.64,-8.45
4600,-10.06,-121.87,154.75,10.95,9.26,-11.18
4610,-14.25,-146.31,165.69,11.23,8.86,-12.77
4620,-28.06,-161.81,173.12,10.9,9.37,-13.93
4630,-35,-153.56,181.56,10.47,9.44,-14.78
4640,-33.06,-137.62,195.19,9.54,10.32,-14.74
4650,-28.94,-120.94,219.62,9.01,10.47,-13.93
4660,-20.87,-111.25,256.5,8.86,10.08,-12.85
4670,-9.13,-119.62,301.19,8.25,6.68,-12.25
4680,-0.37,-154.5,348,7.9,3.21,-14.48
4690,-23.69,-213,383.69,7.34,0.57,-16
4700,-32.94,-266.31,406.75,6.28,-3.11,-19.08
4710,14.06,-308.12,426.75,5.94,-5.39,-21.02
4720,107.19,-310.06,435.94,5.91,-8.39,-22.93
4730,185.12,-287.5,424.62,4.31,-10.33,-24.67
4740,220.44,-247.06,402.37,5.4,-14.32,-27.92
4750,211.25,-186.19,357.44,6.06,-16.25,-29
4760,155.87,-120.75,280.69,5.29,-17.29,-28.75
4770,93.37,-59.19,193.31,5.13,-17.84,-26.82
4780,65.31,-0.44,104.69,4.58,-16.71,-25.82
4790,55.63,52.19,14.19,3.48,-14.04,-24.27
4800,59.5,98.19,-55.88,2.17,-11.12,-22.87
4810,65.62,130.06,-93.87,1.31,-7.33,-20.73
4820,61.63,148.81,-109.25,1.61,-6.2,-19.71
4830,43.75,158.06,-113.5,1.23,-5.3,-18.55
4840,26.31,162.5,-110.81,1.24,-3.71,-15.41
4850,30.12,163,-102.87,1.62,-3.72,-14.42
4860,39.75,152,-96,1.98,-3.76,-13.59
4870,50.81,132.5,-91.44,2.32,-4.3,-13.47
4880,59.63,112,-91.37,2.62,-6.5,-14.45
4890,65.25,99.31,-99.69,2.8,-7,-14.54
4900,81.37,97.06,-116.31,2.82,-7.1,-14.52
4910,103.87,99.06,-135.12,3.1,-7.66,-15.62
4920,105.62,101.31,-159.75,2.93,-7.12,-15.64
4930,88.56,108.5,-186.5,2.43,-6.14,-15.9
4940,61.94,121.69,-207,2.59,-3.6,-14.5
4950,40.69,126.94,-216.37,2.62,-2.68,-14.11
4960,-2.31,134.56,-220.69,2.72,-1.14,-12.23
4970,-52.25,129.87,-215.44,3.05,0.52,-9.41
4980,-39.75,121.31,-198.56,3.72,1.47,-6.88
4990,11.06,108.87,-178.5,4.42,1.52,-6.95
5000,49.06,88.5,-164.44,4.54,1.82,-7.27
5010,62.5,66,-154.94,4.87,3.7,-6.78
5020,77.81,41.75,-142.94,5.01,4.47,-7
5030,96,17.81,-124,5.14,4.89,-7.73
5040,93.31,-10.25,-99.12,5.41,5.18,-8.7
5050,66.06,-35.5,-73.75,5.68,6.2,-9.66
5060,34.88,-51.5,-48.44,5.73,6.42,-9.52
5070,13.13,-67.37,-18.5,6.1,5.95,-9.86
5080,-3.31,-84.37,9.13,7.07,3.84,-11.1
5090,-21.62,-96.87,25.56,7.3,2.73,-11.67
5100,-35.31,-102.94,31.81,7.6,1.62,-12.18
5110,-45.06,-115.69,31.62,7.65,0.22,-13.5
5120,-49.13,-119.81,22.87,9.17,-1.78,-16.09
5130,-64,-121.19,2.56,9.11,-1.21,-16.67
5140,-67.25,-104,-22.44,8.68,-0.14,-16.6
5150,-43.75,-73.31,-40.69,7.59,1.68,-15.62
5160,-6.06,-48.13,-42.13,7.69,1.55,-15.81
5170,17.87,-43.25,-33.5,7.93,0.78,-16.45
5180,24.31,-49,-22.12,8.93,-1.95,-19.35
5190,17.87,-49.38,-17.87,9.06,-2.76,-20.47
5200,-3.75,-30.81,-25.75,8.74,-3.1,-20.57
5210,-31.44,-0.13,-37.44,8.46,-3.54,-20.03
5220,-54.25,30.31,-49.88,9.08,-4.39,-17.08
5230,-61.88,56.06,-70.75,9.25,-4.34,-15.67
5240,-73,66.19,-97.56,9.59,-3.35,-14.04
5250,-91.5,54.13,-125.81,8.95,0.56,-10.65
5260,-69.69,36.94,-142.06,8.73,1.79,-10.62
5270,-8.69,17.44,-142.62,8.53,1.84,-12.55
5280,48.81,1.81,-137.19,8.69,1.68,-15.29
5290,75,9.75,-136.62,9.21,2.26,-18.33
5300,68.44,36.69,-138.25,9.65,2.74,-17.89
5310,37.44,63.75,-142.06,9.99,3.76,-16.15
5320,19.37,85.69,-145.25,9.79,6.25,-12.09
5330,37.5,99.62,-143.12,9.63,7.13,-11.05
5340,70.81,101.87,-133.56,9.5,7.85,-10.59
5350,94.25,94.25,-115.81,9.35,8.36,-10.17
5360,104.37,79.94,-86.69,9.51,8,-9.78
5370,95.44,56,-50.44,10.11,6.77,-9.86
5380,73.06,29.69,-21.31,9.89,5.98,-10.12
5390,47.31,11.06,-1.94,11.76,2.36,-11.73
5400,1.19,-1.94,-10.44,11.42,3.27,-10.42
5410,15.25,2.06,-26,11.27,3.86,-9.99
5420,76.19,11.56,-32.44,11.26,3.62,-11.52
5430,92.87,11.75,-37.19,10.44,5.63,-13.28
5440,76.06,15.25,-39.81,9.65,7.51,-12.63
5450,85.44,27.25,-24.94,9.66,8.23,-12.52
5460,94.69,38,3.94,9.85,6.85,-13.24
5470,55.38,39.88,30,9.86,6.33,-12.18
5480,-0.62,37.75,53.19,9.97,5.86,-10.77
5490,-32.19,35.5,71.06,9.94,4.45,-8.25
5500,-43.88,26.94,81.75,10.13,3.84,-7.33
5510,-51.38,8.94,81.87,9.7,3.85,-6.48
5520,-42.19,-13,77.37,9.31,3.93,-6.07
5530,-12.38,-37.63,73.69,9.23,3.84,-8.22
5540,9.63,-58.44,68,9.24,4.06,-9.39
5550,11.13,-69.81,64.25,9.19,4.33,-10.35
5560,-6,-77.19,65.31,9.57,4.97,-11.38
5570,-34.56,-85.06,67.75,9.39,5.72,-11.61
5580,-54,-91.37,73.87,9.55,6.04,-11.95
5590,-67.25,-102.56,83.87,9.99,6.18,-12.46
5600,-74.56,-118.5,90.5,9.52,7.26,-14.81
5610,-67.56,-135,106.12,9.59,7.01,-17.05
5620,-59.19,-147.87,130.94,9.35,6.42,-19.42
5630,-47.94,-141.94,158.44,8.63,4.21,-24.04
5640,-36.69,-100,187.44,8.39,2.51,-25.18
5650,-39.88,-27.44,211.94,8.86,0.51,-24.67
5660,-55.13,55,222.62,9.21,-1.06,-22.75
5670,-69,126,218.25,9.64,-2.76,-15.88
5680,-68.5,172.44,206.75,10.1,-3.19,-12.16
5690,-51.56,182.44,192.56,10.48,-3.53,-9.32
5700,-35.25,154.87,179.06,10.77,-3.55,-8.82
5710,-62.88,97.25,171.81,11.89,-3.5,-7.18
5720,-100.81,25.87,164.62,12.17,-3.55,-6.63
5730,-84,-45.5,155.5,12.68,-4.29,-11.29
5740,-38.31,-87.94,139.25,12.4,-4.37,-14.04
5750,0.19,-102.75,126.25,11.94,-4.26,-15.89
5760,19.37,-101.06,119.69,11.93,-4.55,-17.68
5770,24,-89.94,115.56,11.42,-4.97,-20
5780,18.5,-73.62,105.37,11.18,-4.46,-20.49
5790,22.37,-35.88,95.87,11.09,-4.06,-20.4
5800,20,2.25,87,9.75,-2.28,-18.53
5810,9.75,22.44,88.19,9.52,-2.06,-18.17
5820,1.69,31,104.5,9.2,-2.74,-18.04
5830,-11.56,35.44,126.56,9.3,-4.07,-18.17
5840,-32.31,41.25,139.12,9.34,-6.72,-17.07
5850,-45.81,52.38,135.12,9.19,-7.57,-15.69
5860,-40.13,65.25,123.06,8.91,-8.5,-14.48
5870,-19.62,69.37,108.81,9.67,-10.56,-13.5
5880,1.87,62.75,87.56,9.87,-11.25,-13.73
5890,21.94,50.81,55.69,9.73,-11.57,-14.15
5900,42.56,41.44,17.44,9.54,-11.18,-15.71
5910,56.56,41,-24.19,9.36,-10.54,-16.29
5920,52.5,48.56,-61.88,8.89,-9.45,-16.18
5930,37.81,61.69,-89.06,8.55,-8.16,-15.44
5940,33.25,76.75,-101.75,7.97,-6.7,-13.55
5950,42.94,88.62,-103.12,8.12,-6.85,-12.74
5960,63.88,94.81,-98.19,8.53,-6.92,-12.15
5970,82,94.69,-95.87,8.68,-7.06,-11.65
5980,86.56,87.5,-94,8.64,-7.21,-11.31
5990,75.5,74.06,-92.81,8.57,-7.48,-11.09
6000,61.06,59.69,-93.25,8.56,-7.8,-11.03
6010,45.56,43.13,-100.12,8.61,-7.48,-10.67
6020,42.5,30.06,-114.19,8.37,-7.15,-10.83
6030,56.56,27.25,-132.75,8.04,-6.41,-11.26
6040,63.31,29.87,-152,7.1,-4.11,-10.91
6050,64.12,33.19,-165.06,6.91,-3.12,-10.76
6060,66,29.56,-165.56,6.46,-2.2,-10.73
6070,67.75,18.75,-154.81,6.33,-1.79,-11.27
6080,66.12,8.06,-136.37,5.84,-1.41,-11.84
6090,69.12,-3.56,-118.37,5.81,-2.14,-13.12
6100,69.12,-3.56,-118.37,6.53,-3.36,-14.03
6110,30.5,-9.5,-92,6.34,-3.24,-12.54
6120,-3.94,-11.5,-95.12,6.47,-3.1,-11.89
6130,28,12.44,-103.25,7.1,-3.56,-11.88
6140,45.44,26.37,-118.19,7.07,-3.4,-11.52
6150,26.12,24.37,-134.62,6.64,-0.74,-8.77
6160,28.19,17.25,-137,7.12,-0.45,-8.55
6170,36.56,0.62,-135.69,7.32,-0.41,-8.82
6180,31,-19.69,-136.37,6.85,1.22,-7.71
6190,34.56,-42.5,-135.62,7,1.73,-8.16
6200,71.5,-55.19,-126.5,7.33,1.46,-9.68
6210,90.69,-65.5,-119.25,7.68,1.36,-11.97
6220,77.94,-71.06,-117.12,7.7,1.63,-12.39
6230,65.81,-65.06,-119.69,7.84,2.14,-12.51
6240,63.13,-52.88,-122.5,7.66,2.78,-11.89
6250,63.13,-52.88,-122.5,8.04,3.94,-12.63
6260,63.31,-45.94,-123.62,7.77,5.42,-11.29
6270,-0.19,-50.38,-118.94,7.47,7.04,-10.11
6280,24,-52.5,-95.56,8.35,5.89,-11.88
6290,52.19,-51.5,-68.69,8.09,5.44,-12.52
6300,52.19,-51.5,-68.69,8.48,4.84,-12.44
6310,29.75,-58.94,-47.56,9.03,3.96,-12.28
6320,-26.44,-71.06,-21.5,9.33,2.03,-12.67
6330,-36.75,-72.19,-27.25,11.05,0.67,-12.47
6340,-48.75,-69.56,-44.75,13.32,-2.63,-14.78
6350,-48.75,-69.56,-44.75,9.82,3.41,-10.37
6360,-101.69,-70.12,-101.62,10.43,4.54,-9.95
6370,-26.75,-64.5,-119.69,10.63,4.58,-11.16
6380,12.19,-76.37,-114.19,10.38,4.46,-12.83
6390,7.44,-87.87,-113.75,10.12,6.2,-14.92
6400,7.44,-87.87,-113.75,9.7,7.82,-14.48
6410,-11.06,-86.69,-113.62,10.18,9.04,-13.82
6420,-1.44,-73.12,-88.62,10.2,9.57,-13.38
6430,13.44,-76.44,-60.31,11.3,7.43,-15.24
6440,13.75,-85.37,-41.38,11.52,6.57,-16.37
6450,13.75,-85.37,-41.38,11.2,6.66,-17.3
6460,1.06,-79.81,-44.31,11.55,7.19,-16.35
6470,-39.81,-45.81,-58.94,12.78,7.73,-14.53
6480,-45.06,-35.75,-58.38,13.43,8.26,-13.21
6490,-19.87,-32.06,-62.13,11.64,11.77,-14.11
6500,-19.87,-32.06,-62.13,11.64,11.77,-14.11
6510,28.94,-23.44,-72.06,10.79,13.62,-15.17
6520,68.5,-23.12,-50.69,7.55,15.63,-19.12
6530,44.31,-17.25,-4.5,6.38,14.8,-19.38
6540,-7,-3.69,53.13,5.87,13.08,-18.1
6550,-7,-3.69,53.13,5.87,13.08,-18.1
6560,-48.25,10.56,110,6.26,10.77,-17.02
6570,-65.69,35,163.94,6.61,4.39,-16.19
6580,-80.56,50.75,157.75,6.71,3.75,-14.39
6590,-81.25,63.81,144,7.18,3.25,-10.69
6600,-81.25,63.81,144,7.18,3.25,-10.69
6610,-66.44,67.25,122.25,7.38,3.82,-9.23
6620,-25.12,46,78.12,7.14,5.81,-7.3
6630,-12.5,24.25,68.12,6.85,7.73,-7.34
6640,-8.75,-5.5,73.44,6.44,8.35,-7.66
6650,-8.75,-5.5,73.44,6.44,8.35,-7.66
6660,-14.25,-46.88,94.06,6.91,8.27,-8.49
6670,-23.56,-87,120.44,6.89,6.09,-13.26
6680,-30.25,-115.5,144.37,7.15,5.25,-14.85
6690,-27.37,-127.06,163.69,6.87,3.95,-17.57
6700,-11.13,-121.06,178.44,6.87,3.95,-17.57
6710,1.19,-108.37,191.69,6.74,3.15,-18.65
6720,0.88,-89.37,205.62,6.9,1.58,-19.05
6730,-17,-63.56,214.44,6.91,1.2,-16.25
6740,-49.06,-38.19,216.19,7.27,1.27,-14.53
6750,-82.12,-25.37,213.12,7.27,1.27,-14.53
6760,-97.94,-25.44,208.69,7.22,1.49,-12.97
6770,-93.06,-40.81,203.56,7.03,1.5,-12.82
6780,-68.94,-66.06,198.87,7.15,1.33,-14.06
6790,-37.88,-92.44,193.69,6.38,1.57,-15.22
6800,-13.75,-112.69,187.44,6.38,1.57,-15.22
6810,7.56,-120.56,186.37,5.91,1.07,-17.57
6820,21.94,-115.5,195.44,5.6,-0.24,-19.26
6830,19.81,-105,205.56,5.38,-1.41,-19.07
6840,3.37,-91.5,212.56,5.38,-2.16,-18.78
6850,-10.44,-78.44,214.5,5.38,-2.16,-18.78
6860,0.06,-67.19,215,5.78,-3.24,-19
6870,23,-57,210.81,6.9,-5.75,-19.98
6880,39.44,-42.63,197,6.95,-5.94,-20
6890,46.06,-25.5,175.37,6.7,-6.08,-19.91
6900,46.5,-3.94,152.06,6.7,-6.08,-19.91
6910,38.31,13.56,131.25,6.35,-6.41,-18.53
6920,29.37,22.94,110.81,6.27,-6.27,-17.53
6930,35.69,28.06,96.19,6.36,-6.22,-17.02
6940,54.75,30.06,85.5,6.1,-6.57,-17.12
6950,84.62,31.75,79.62,6.1,-6.57,-17.12
6960,108.94,30.75,78.19,5.96,-7.15,-17.64
6970,124.37,30.44,81.5,5.89,-9.7,-19.85
6980,122.12,35.81,76.87,5.83,-10.16,-19.63
6990,102.94,47.94,63.13,5.79,-10.37,-19.05
7000,76.37,68.31,45.31,5.79,-10.37,-19.05
7010,48.25,89.12,29.69,5.36,-11.06,-16.68
7020,24.69,100.94,16.87,5.29,-11.64,-14.94
7030,16.87,98.37,7.19,4.97,-12.35,-14.89
7040,28.75,84.62,0.13,4.04,-14.7,-16.14
7050,48.38,65.62,-6.31,4.04,-14.7,-16.14
7060,66.12,44.13,-9.94,4.37,-16.47,-17.16
7070,78.31,28.5,-19.19,4.79,-19.85,-19.75
7080,86.94,32.69,-49.13,4.51,-18.67,-18.81
7090,77.94,52.31,-105.62,2.73,-16.05,-16.78
7100,53.31,75.19,-190,2.73,-16.05,-16.78
7110,53.38,101.94,-264.56,1.45,-13.05,-14.92
7120,87.06,125.25,-306.81,0.45,-8.16,-11.38
7130,119.25,125.44,-325.56,0.26,-7.59,-11.72
7140,151.94,109.75,-329.37,-0.45,-7.28,-12.88
7150,162.44,82.75,-323.56,-0.45,-7.28,-12.88
7160,135.25,55.19,-316.5,-0.72,-6.87,-12.36
7170,107.31,40.63,-316.56,-1.93,-4.45,-11.89
7180,107.75,33.13,-326,-2.76,-2.65,-11.06
7190,116.94,26.44,-343.81,-3.61,-0.17,-9.79
7200,137.19,28,-365.25,-3.61,-0.17,-9.79
7210,195.56,34.25,-387.56,-4.89,2.53,-9.64
7220,271.81,26.69,-398.5,-6.48,9.78,-14.93
7230,313.56,-1.37,-382.75,-6.48,9.78,-14.93
7240,306.62,-30.81,-340.87,-5.9,10.98,-17.16
7250,268.44,-41.81,-283.19,-4.13,12.22,-20.38
7260,213.12,-19.94,-208.25,-2.68,12.46,-18.97
7270,150.81,16,-129.81,-1.29,11.9,-16.25
7280,97.31,42.75,-61.5,0.82,10.82,-13.16
7290,57.13,57.81,-24.87,3.02,10.29,-8.21
7300,52.88,73.62,-10.44,4.05,9.4,-7.8
7310,63.06,91.81,3.62,4.43,9.03,-4.89
7320,49.38,37.06,32.81,7.69,6.29,-4.49
7330,12.69,-59.44,64.62,9.52,3.64,-6.2
7340,-24.56,-143.81,51.25,9.02,4.31,-8.33
7350,5.62,-194.94,7.87,10.02,5.85,-9.89
7360,49.94,-251.25,-23.75,9.03,12.43,-16.91
7370,72.19,-276.5,-13.19,8.83,13.47,-22.49
7380,123.31,-189.44,29.06,10.48,12.97,-25.76
7390,99.81,-104.62,88.56,13.35,10.98,-22.11
7400,33.25,-53.38,153.62,15.11,9.76,-20.68
7410,-25.81,-36.5,226.19,14.95,3.7,-20.49
7420,-98.31,-43.63,267.06,18.88,-1.11,-15.76
7430,-94.31,-41.75,250.87,18.39,-2.31,-16.57
7440,-61.88,-54.63,225.25,18.72,-2.87,-17.9
7450,-41.75,-63.5,203.75,18.84,-3.47,-19.24
7460,-35.38,-61.13,188.56,18.44,-4.48,-21.59
7470,-30.31,-42.63,176.06,17.89,-4.8,-22.98
7480,-38.19,-11.63,163.19,17.13,-4.88,-23.82
7490,-65.62,30.31,150.81,14.76,-3.4,-21.09
7500,-103.37,66.37,151.62,13.61,-3.36,-15.75
7510,-96.25,91.37,154.87,11.84,-2.62,-15.21
7520,6.19,132.25,157.25,11.16,-1.98,-18.54
7530,28.75,181.5,178.44,11.4,-3.44,-15.3
7540,-26.62,226.81,203.5,10.26,-4.28,-12.5
7550,-121.5,210.69,229.25,10.17,-4.94,-9.5
7560,-197,157.25,266.81,10.17,-7.95,-7.96
7570,-192.37,115.87,300.12,9.53,-10.31,-8.52
7580,-154,82.31,329.56,9.47,-13.85,-9.86
7590,-118.94,42.63,363.25,9.18,-17.66,-11.37
7600,-79.56,11.06,392.37,5.34,-23.66,-16.06
7610,-28.81,12.06,430.75,14.63,-29.91,-17.59
7620,10.5,35.44,402.81,11.47,-32.9,-18
7630,29.19,62.81,257.56,9.55,-34.29,-16.58
7640,64.56,95.44,131.37,8.92,-34.24,-16.89
7650,76.37,120.31,0,7.54,-32.01,-15.29
7660,46.44,130.75,-127.81,3.99,-23.75,-10.74
7670,38.38,122.75,-224.37,3.23,-20.44,-13.71
7680,27.44,107.81,-284.12,3.08,-16.05,-10.38
7690,-40.88,75.5,-317.19,1.69,-11.9,-7.69
7700,-5.62,48.69,-319.75,1.3,-8.92,-12.08
7710,47.75,33.25,-311.56,0.63,-7.49,-13.47
7720,40,22.87,-297.56,0.1,-6.23,-13.49
7730,22.56,19.31,-272.62,-0.04,-5.96,-14.21
7740,29.12,19.87,-243.81,0.24,-6.66,-15.21
7750,29.81,21.62,-222,0.1,-6.96,-15.39
7760,18.56,31.94,-214.37,-0.12,-6.8,-14.9
7770,10.44,49.94,-215.37,-0.98,-5,-11.9
7780,7.31,63.88,-217.69,-1.01,-4.12,-10.34
7790,16.87,65.75,-214.06,-0.77,-4.06,-9.31
7800,33.75,57.44,-206.87,0.33,-5.52,-8.84
7810,28,44.38,-201.56,-1.06,-3.43,-5.74
7820,25.75,23.44,-212.06,0.4,-2.66,-6.11
7830,76.56,6.12,-211.56,0.16,-1.66,-6.45
7840,101.62,-29.56,-203.5,1.46,-0.76,-10.59
7850,83.25,-52.88,-187.25,2.84,0.19,-10.57
7860,52.63,-58.81,-176.69,2.95,1.64,-9.72
7870,82.69,-45.81,-167.19,4.12,2.01,-12.26
7880,108.06,-25.06,-152.19,4.14,3,-11.28
7890,81.81,-19.12,-136.31,4.31,3.72,-10.41
7900,86.81,-10.75,-113,5.29,2.9,-10.58
7910,102.69,-5.37,-88.81,5.76,2.06,-10.56
7920,91.19,-6.69,-71.5,6.25,1.75,-9.59
7930,68.19,-14.06,-67.69,6.69,2.04,-8.2
7940,75.06,-30.44,-74.06,7.18,4.58,-8.14
7950,117.62,-57.25,-82.19,7.04,5.77,-10.16
7960,156.5,-90.69,-78.94,6.89,6.36,-12.74
7970,160.62,-123.56,-56.19,8.25,3.9,-18.1
7980,135.31,-138,-24.69,9.89,2.57,-19.12
7990,94.25,-126.25,-14.94,9.89,2.34,-19.06
8000,59.31,-104.56,-29.44,10.28,3.43,-16.96
8010,60.75,-79.25,-54.88,12.08,2.48,-18.4
8020,72.87,-55.56,-106.94,10.36,6.38,-17.18
8030,61.25,-19.81,-158.31,9.97,9.88,-14.99
8040,39.88,-0.13,-165.69,10.23,13.12,-11.12
8050,10.5,-3.81,-139.12,10.51,13.31,-10.55
8060,-34.06,-16.56,-100.44,10.67,12.29,-9.53
8070,-83.31,-42.69,-49.06,11.71,10.65,-7.7
8080,-103.62,-101.81,15.25,16.82,2.3,-9.61
8090,-103.37,-175.75,44.69,17.88,-0.57,-11.83
8100,-104.5,-242.69,34.06,17.94,-1.74,-16.06
8110,-58.88,-222.75,2.5,19.82,-3.2,-23.86
8120,-9.06,-168.31,-40.25,19.8,-1.78,-24.7
8130,-13.44,-111.81,-85.94,19.25,1.21,-23.47
8140,-12,-54.13,-117.87,18.4,5.66,-22.8
8150,10.69,-10.88,-118.62,18.12,6.41,-23.12
8160,16.44,19.12,-97.81,17.88,6.44,-23.14
8170,6.56,46.19,-69.5,17.57,5.98,-22.97
8180,-1,79.25,-42.38,16.87,4.01,-20.89
8190,-6.62,117,-25.69,16.34,4.07,-18.54
8200,-4,151.75,-25,15.72,4.62,-16.23
8210,9.19,174.69,-28.69,14.41,5.79,-12.89
8220,20.19,183.19,-29.75,14.13,6.15,-11.87
8230,29.12,178.69,-28.25,13.73,6.66,-11.42
8240,37.5,165.69,-26.81,13.52,7.3,-11.22
8250,47.19,152.94,-26.31,12,9.08,-12.45
8260,56.75,141.81,-26.5,11.7,10.27,-13.17
8270,36.94,133.75,-25.75,10.96,11.68,-12.53
8280,6,124.19,-18.62,9.32,13.17,-12.17
8290,-1.81,111.31,0.75,8.54,13.14,-12.81
8300,2.25,98.12,29.94,8.54,12.37,-13.6
8310,2.69,85.81,61.69,6.87,11.68,-16.64
8320,-24.75,91.56,88.69,6.88,10.73,-13.84
8330,-64.87,92.87,103.06,6.85,10.98,-13.9
8340,-27.75,105.5,95.94,6.63,11.82,-15.61
8350,5.12,131.06,77.31,5.57,14.41,-14.84
8360,-19.56,150.25,58.5,2.75,15.43,-13.4
8370,-55.5,160,48.5,-1.65,17.38,-12.37
8380,-73.19,171.12,104.81,-2.36,13.69,-11.3
8390,-86,169.37,199.69,-3.34,10.35,-10.39
8400,-141.37,134.12,280.69,-3.89,6.8,-9.47
8410,-208.5,79.44,342.56,-4.77,3.82,-8.83
8420,-232.06,30.94,382.94,-6.86,-0.98,-9.21
8430,-204.94,8.06,407.87,-7.69,-3.62,-10.19
8440,-163.87,0.31,429.5,-6.92,-7.24,-10.87
8450,-146.25,0.06,447.62,-5.96,-12.05,-9.96
8460,-135.12,-3.56,449.62,-4.88,-14.87,-9.87
8470,-134.44,-9.06,439.81,-3.78,-17.57,-10.12
8480,-180.62,-40.56,418.81,-4.85,-19.02,-9.5
8490,-226.12,-70.37,414.69,6.07,-23.44,-6.03
8500,-215.81,-92.5,403.31,3.82,-24.22,-6.36
8510,-171.31,-109.75,252.94,1.82,-22.69,-7.04
8520,-136.37,-131.56,137.06,2.61,-19.32,-9.58
8530,-90.06,-149.25,64.37,2.03,-17.84,-11.37
8540,-54.69,-147.56,23.44,2.36,-17.44,-12.09
8550,-49.25,-140.75,17.94,3.03,-17.93,-11.98
8560,-40.69,-128.94,30.31,5.89,-20.34,-11.82
8570,-24.44,-116.31,34.88,7.01,-21,-11.71
8580,-8.69,-108.19,27.19,7.36,-21.72,-12.4
8590,-5.75,-108.06,19.62,8.18,-24.34,-12.52
8600,-28.12,-117.62,18,9.65,-26.58,-12.23
8610,-41.56,-129.19,16.81,10.61,-29.05,-12.5
8620,-41.13,-142.94,-2,11.84,-31.11,-12.64
8630,-28.19,-145.19,-63.75,12.89,-31.22,-11.61
8640,-16.06,-150.12,-167.81,11.11,-27.5,-11.09
8650,6.56,-165.81,-270.87,9.64,-23.35,-12.16
8660,40.06,-190.37,-334.75,8.97,-18,-18.05
8670,44.19,-211.94,-367.75,9.33,-15.23,-19.5
8680,28.87,-210.19,-392.44,8.92,-12.11,-20.85
8690,32.88,-192.5,-409.56,9.32,-6.39,-23.97
8700,44.75,-171.75,-411.94,9.37,-4.12,-25.95
8710,86.37,-118.06,-395.12,9.99,-2.22,-28.24
8720,86.37,-118.06,-395.12,10.29,0.01,-30.19
8730,118.25,-74.37,-389.19,9.87,5.42,-33.61
8740,150.31,-19.19,-381,8.98,8,-34.64
8750,160.94,49.31,-361.69,7.93,10.23,-34.42
8760,85.31,198.94,-266.5,6.44,12.46,-28.14
8770,85.31,198.94,-266.5,6.8,11.73,-23.4
8780,37.69,244.25,-206.94,7.14,11.24,-22
8790,-10.13,262.44,-162.06,7.11,11.07,-16.33
8800,-56.19,250.25,-126.81,7.37,10.33,-11.47
8810,-29.56,217.12,-95,7.15,10.11,-12.39
8820,-0.62,175.44,-78.75,6.8,10.77,-13.68
8830,0.75,148.62,-70.87,6.04,12.09,-13.78
8840,-5.12,138.5,-57.44,5.82,12.09,-13.68
8850,-5.5,132.06,-34.25,6.5,11.4,-13.69
8860,-28.87,120.56,21.06,6.75,10.45,-14.4
8870,-28.87,120.56,21.06,7.18,8.85,-11.82
8880,-50.63,112.75,43.75,7.15,8.1,-11.53
8890,-21.06,110.06,78.12,6.93,7.53,-12.21
8900,-35.44,117.81,95.81,5.34,7.39,-12.24
8910,-69.25,124.19,119.75,4.98,6.75,-10.99
8920,-69.25,124.19,119.75,4.83,5.83,-9.28
8930,-98.25,117.94,143.44,4.75,3.77,-7.31
8940,-104.81,103,161.75,4.9,3.15,-7.25
8950,-112.37,58.94,184.5,4.49,2.93,-7.22
8960,-120.69,28.69,204.25,4,2.59,-7.09
8970,-120.69,28.69,204.25,3.89,-0.49,-8.22
8980,-104.94,7.06,230.56,3.14,-1.58,-8.95
8990,-100.5,18.56,235.69,2.93,-2.76,-10.55
9000,-136.12,23.94,242.19,1.61,-3.78,-8.53
9010,-136.12,23.94,242.19,1.65,-5.09,-7.44
9020,-143.25,12.81,256.94,1.83,-6.53,-6.7
9030,-123.44,1.75,253.87,1.61,-7.38,-5.64
9040,-115.81,-13.81,252.19,2.15,-9.53,-6.67
9050,-126.62,-36.81,243.37,2.36,-10.27,-6.21
9060,-122.69,-59.44,229.25,2.81,-11.02,-6.15
9070,-113.94,-77.25,206.56,3.62,-12.09,-7.77
9080,-111.19,-87.62,178.75,3.99,-12.09,-8.23
9090,-101.31,-90.62,150,3.86,-11.59,-8.86
9100,-95.87,-83.81,129.62,3.68,-11.11,-9.95
9110,-104.44,-77,121,3.42,-9.87,-9.99
9120,-106.94,-73.69,125,3.15,-9.39,-9.17
9130,-94.87,-78.31,137.25,2.76,-9.32,-8.47
9140,-86.62,-93.5,151.25,2.5,-11.07,-8.64
9150,-97.81,-117,156.19,2.66,-12.2,-8.85
9160,-97.81,-117,156.19,2.88,-13.05,-9.07
9170,-115.56,-145.62,146.06,3.1,-13.04,-10.28
9180,-136.25,-204.75,114.87,2.45,-13.36,-11.26
9190,-140.62,-221.5,112.19,2.32,-14.47,-13.08
9200,-151.12,-222.62,101.87,3.16,-15.83,-14.74
9210,-151.12,-222.62,101.87,4.53,-16.69,-16.07
9220,-152.62,-206.19,69.69,3.88,-15.75,-15.69
9230,-146.5,-202.62,26,3.3,-15.44,-16.04
9240,-138.81,-224.19,30.37,4.18,-17.77,-18.15
9250,-114.19,-244,24.5,4.73,-18.9,-19.99
9260,-114.19,-244,24.5,4.69,-19.8,-23.96
9270,-92.37,-256.44,4.19,5.05,-20.52,-25.93
9280,-65.87,-236.56,-68.87,6.07,-21.18,-29.58
9290,-48.13,-203.12,-120.94,6.15,-20.71,-31.86
9300,-43.63,-147.87,-176,6.2,-19.6,-32.7
9310,-43.63,-147.87,-176,5.42,-15.39,-32.53
9320,-34.63,-82.19,-230.75,4.72,-12.09,-30.79
9330,-17.37,24.5,-306.81,3.84,-8.48,-28.29
9340,2.5,41.5,-311.44,3.26,-5.58,-26.19
9350,27.81,49.06,-303.62,2.7,-2.22,-25.13
9360,27.81,49.06,-303.62,2.7,-2.22,-25.13
9370,46.75,58.94,-294.25,2.42,0.04,-25.1
9380,67.81,96.56,-263,2.31,2.23,-25.48
9390,65.94,127.31,-240.44,2.42,2.61,-24.93
9400,59.63,160.56,-218.12,2.55,2.53,-23.68
9410,59.63,160.56,-218.12,2.55,2.53,-23.68
9420,54.81,187.06,-202.06,2.9,2.11,-20.02
9430,71.94,208.69,-190.37,3.95,1.45,-17.55
9440,85.19,211.5,-194.94,4.23,1.97,-16.72
9450,102.12,213.75,-197,4.26,3.9,-15.68
9460,102.12,213.75,-197,4.26,3.9,-15.68
9470,117,214.87,-193.62,4.48,4.84,-15.48
9480,126.31,223.12,-165.87,4.62,8.16,-14.66
9490,113.06,227.12,-134.56,4.62,8.63,-13.72
9500,95.37,226.44,-93.81,4.66,8.54,-12.69
9510,95.37,226.44,-93.81,4.66,8.54,-12.69
9520,77.87,219.87,-51,5.24,7.74,-11.11
9530,-28.69,202.56,18.62,5.36,4.51,-8.62
9540,-49.25,184.75,36.94,6.33,3.08,-5.7
9550,-28.06,148.31,44.06,6.95,1.16,-5.66
9560,-28.06,148.31,44.06,6.95,1.16,-5.66
9570,-27.31,102.19,43.38,7.08,0.99,-6.3
9580,-44.81,45,41.56,6.54,1.97,-8.91
9590,-53.44,39.88,43.25,5.51,3.22,-9.39
9600,-53.44,39.88,43.25,4.58,4.2,-11.54
9610,-50.19,47.06,57.81,4.58,4.2,-11.54
9620,-97.37,52.94,87.37,4.25,4.95,-11.8
9630,-134.87,37.63,129.75,2.8,3.7,-10.05
9640,-132.62,16.56,174.81,2.52,2.06,-10.5
9650,-143.44,-1.81,208.12,1.64,-0.46,-10.72
9660,-133.62,-15.06,230.06,1.64,-0.46,-10.72
9670,-108.81,-21,245.12,1.04,-1.76,-12.35
9680,-116.06,-25.69,250.94,-0.66,-1.88,-12.72
9690,-123.75,-17.44,254.62,-2.61,-2.15,-11.8
9700,-114.12,-2.62,267.62,-3.46,-2.87,-11.05
9710,-126.31,-1.87,288.44,-3.46,-2.87,-11.05
9720,-149.94,-13.06,311.5,-3.63,-4.49,-10.01
9730,-166.75,-41.81,329.75,-2.14,-13.29,-9.26
9740,-176.19,-88.69,345.06,-0.97,-17.16,-10.62
9750,-189.44,-138.56,344.12,1.7,-20.5,-11.64
9760,-187.06,-168.56,304.56,1.7,-20.5,-11.64
9770,-182.81,-165.81,210.19,4.82,-24.32,-15.74
9780,-193.75,-148.62,87,3.74,-18.11,-13.78
9790,-179,-130.19,-24,1.95,-10.04,-12.66
9800,-155.62,-129.94,-78.87,1.37,-6.98,-12.8
9810,-145.25,-146.12,-91.81,1.37,-6.98,-12.8
9820,-138.31,-164,-78.81,0.9,-4.65,-13.2
9830,-129.75,-181.75,-48.63,-0.44,-2.15,-17.18
9840,-124.31,-203.12,-4.94,0.79,-4.42,-19.61
9850,-131.12,-218.25,40.31,0.84,-6.39,-20.4
9860,-150.06,-225.81,62.5,0.84,-6.39,-20.4
9870,-126.81,-211.25,76,0.2,-8.84,-22.1
9880,-105.94,-188.75,79.81,0.89,-11.29,-22
9890,-109.06,-177.06,67.94,0.59,-11.41,-20.96
9900,-106.12,-173,42.63,0.2,-10.76,-20.87
9910,-90.25,-174,13,0.2,-10.76,-20.87
9920,-73.31,-183.75,-10.5,-0.09,-9.74,-21.22
9930,-56.13,-201.19,-19.62,-0.62,-9.22,-27.53
9940,-40.88,-205.06,-23.12,-0.66,-10.28,-29.41
9950,-38.25,-184.06,-25.81,0.64,-11.21,-29.51
9960,-34.75,-142.81,-43.5,0.64,-11.21,-29.51
9970,-10.56,-83.81,-77.56,0.97,-11.63,-31.43
9980,-10.44,-15.56,-119.56,0.34,-9.41,-27.76
9990,-25,46.06,-156.56,0.28,-7.68,-24.35
10000,-37.63,76.5,-179.12,0.48,-5.19,-20.82
