timestamp,gyrox,gyroy,gyroz,accx,accy,accz
10,-93.56,25.56,-37.56,0,0,0
20,-82.12,-18.06,7.5,0,0,0
30,-68.25,-51.06,42.94,0,0,0
40,-79.87,-69.37,53.38,9.11,-0.64,-11.03
50,-111.06,-82.12,42.63,9.19,-1.07,-11.99
60,-111.37,-88.06,26.44,10.16,0.17,-11.87
70,-244.5,-190.87,208.56,7.85,-5.16,-16.69
80,-246.56,-170.81,187.37,7.85,-5.16,-16.69
90,-190.31,-134.5,142.19,10.35,-6.91,-15.23
100,-114.75,-87.31,75.75,7.76,-4.2,-12.86
110,-21.37,-38.69,27.37,7.85,-3.53,-11.55
120,55.75,-7.19,1.06,7.6,-2.92,-10.77
130,109.94,6.19,-18.19,7.6,-2.92,-10.77
140,160.62,8.31,-31.25,7.97,-2.72,-10.66
150,195.87,4.31,-40.38,7.49,-0.59,-13.38
160,192.62,-5.5,-40.5,6.57,0.61,-13.23
170,159.12,-6.25,-24.94,5.93,1.61,-11.89
180,138,5.44,9.06,5.93,1.61,-11.89
190,138.44,7.31,56.38,6.33,0.69,-11.01
200,129.12,-7.12,101.5,6.9,-3.29,-13.59
210,104.75,-21.87,131.81,7.34,-6.05,-15.92
220,78.75,-22.12,151.87,9.1,-10.69,-17.91
230,49.38,3.31,144.31,9.1,-10.69,-17.91
240,41.63,57.06,101.87,9.39,-11.53,-17.31
250,47.69,117.87,43.25,7.86,-7.55,-10.2
260,58.88,149.81,-2.56,7.4,-6.19,-9.66
270,88.31,153,-23.75,7.46,-5.63,-10.24
280,106.75,142.87,-24.06,7.46,-5.63,-10.24
290,93.81,132.62,-14.13,5.9,-4.61,-11.43
300,65.37,136.31,9,6.68,-6.59,-11.06
310,12.88,129.19,32.69,7.57,-8.91,-9.94
320,-27.25,109.06,35.25,8.13,-10.67,-8.32
330,-25.56,84.56,21.06,9.29,-14.19,-7.97
340,-8.25,67.62,-10.88,9.16,-15.57,-9.37
350,-14.56,65.62,-50.31,8.66,-16.32,-10.29
360,-33.06,74.37,-84,7.17,-16.29,-8.35
370,-31.12,88.31,-104.81,6.44,-15.98,-7.02
380,-10.5,98.87,-107.75,6.41,-15.81,-5.49
390,27.69,107.62,-102.12,6.14,-16.2,-4.14
400,64.69,105.12,-99.31,6.3,-18.5,-3.55
410,78.5,59.69,-119.19,8.23,-19.88,-2.43
420,67.75,-15.38,-179.44,7.3,-20.38,-3.29
430,46.31,-63.81,-247.37,4.45,-16.21,-4.49
440,61.13,-75.62,-299.06,2.7,-13.59,-5.89
450,82.37,-62.75,-328.56,1.48,-11.3,-6.52
460,89,-51,-344.81,0.65,-8.82,-5.48
470,110.81,-53.81,-349.69,-1.43,-3.36,-3.27
480,151.44,-74.37,-339.56,-1.86,-0.81,-3.84
490,184.69,-112.25,-316.44,-2.19,1.56,-5.62
500,194.62,-153.94,-280.81,-2.25,6.16,-9.77
510,203.81,-191.94,-234.81,-1.25,7.37,-11.13
520,208.5,-245.69,-191.81,-1.18,7.64,-11.73
530,198.69,-274.19,-147,-1.99,7.88,-18.5
540,187.37,-201.19,-90.44,-0.41,6.76,-21.88
550,120.19,-148.87,-60.56,0.73,7.23,-21.01
560,48,-120.44,-42.94,1.82,8.37,-18.03
570,26.62,-119.44,-30.56,2.54,10.83,-13.5
580,37.06,-143.62,-12.38,2.01,11.6,-13.8
590,47.69,-174.37,17.06,2.02,12.14,-14.94
600,56.13,-192.56,61.06,1.17,12.16,-18.77
610,54.69,-182.56,122.06,2.76,10.42,-20.41
620,32.25,-163.06,176.25,3.26,8.2,-20.99
630,19.12,-131.5,210.94,3.35,6.42,-21.19
640,-22.19,-80.25,215.69,7.36,1.41,-20.15
650,-79.69,-45.5,182.69,6.85,2.8,-14.55
660,-57.19,-43.94,156.75,6.06,4.61,-11.18
670,-3.19,-60,153.19,5.56,6.37,-12.57
680,0.44,-84.06,168.31,4.83,6.98,-13.81
690,-25.69,-99.44,199.44,4.58,6.64,-14.71
700,-53.31,-107.37,234.56,5.25,5.28,-15.67
710,-78.12,-107.25,259.19,5.54,2.44,-17.43
720,-101.75,-108.44,275.12,6.62,0.95,-17.36
730,-101.62,-113,279.81,6.36,-0.04,-17.64
740,-75.81,-103,274.5,7.92,-1.63,-21.16
750,-67.5,-77.37,264.69,7.65,-1.74,-22.7
760,-81.12,-42.81,267.44,7.81,-2.01,-22.34
770,-108.87,-21.25,289.69,8.21,-5.05,-22.72
780,-136.87,-7.44,310,6.49,-5.95,-21.09
790,-102.81,8,337,6.54,-8.43,-21.34
800,-60.25,15,368.62,6.61,-11.02,-21.15
810,-0.5,20.25,403.31,7.6,-18.03,-24.62
820,22,49,408.06,8.88,-22.09,-26.57
830,-28.19,82.06,363.31,9.83,-23.46,-23.89
840,-3.94,121,298.25,10.33,-24.13,-20.24
850,73.5,170.44,228.94,11.42,-24.64,-21.27
860,96.37,208.94,143.5,11.97,-25.17,-21.28
870,79.81,235.06,48.13,10.8,-24.55,-20.01
880,72.94,250.19,-31.5,8.95,-20.62,-16.3
890,87.19,252.69,-91.44,8.02,-18.04,-14.82
900,115.5,241.44,-125.12,7.43,-15.63,-13.63
910,157.31,221.19,-138.25,6.07,-12.15,-14.33
920,180.69,202.06,-135.94,4.33,-10.85,-19.35
930,102.06,201.44,-119.81,4.3,-10.87,-20.17
940,28.62,208.87,-102.12,3.08,-9.29,-12.98
950,60.75,212.44,-83.5,2.85,-11.82,-13.66
960,22.56,204.19,-71.87,2.27,-12.39,-10.91
970,4.37,184.56,-59.38,2.35,-13.66,-8.04
980,27.5,153.37,-58.5,1.87,-17.78,-9.62
990,32.31,131,-77,1.81,-18.96,-8.84
1000,56.19,116.44,-107.56,1.52,-19.95,-8.74
1010,78.5,105.69,-150.62,0.55,-19.8,-9.97
1020,71.81,96.56,-201.62,-0.16,-17.76,-8.78
1030,68.69,82,-242.56,-0.44,-15.35,-8.82
1040,72.19,58.25,-271.06,-1.14,-13.03,-6.72
1050,116.62,50.38,-282.5,-3.04,-8.21,-9.45
1060,97.62,43.31,-270.25,-2.86,-6.22,-8.16
1070,58.69,12.81,-236.94,-2.99,-5.01,-6.5
1080,62.13,-15.75,-201.44,-1.75,-4.86,-8.17
1090,73.75,-25,-183.06,-1.42,-4.05,-7.24
1100,110.44,-39.81,-164.75,-1.21,-3.76,-8.16
1110,151.94,-47.5,-149.37,-0.57,-4.04,-9.91
1120,180.5,-28.81,-145.37,-0.13,-2.49,-11.84
1130,190.75,2.06,-141.62,0.31,-1.32,-11.18
1140,183.87,25.62,-130.94,0.64,-0.12,-10.07
1150,171.87,38.25,-118.94,1.14,2.92,-6.07
1160,190.19,41.75,-99.69,1.42,3.88,-5.96
1170,208.25,30.19,-61.56,2.15,3.71,-7.08
1180,178.87,8.94,-25.25,2.55,3.5,-8.23
1190,128.75,-0.94,2.62,2.58,3.06,-6.93
1200,101.87,-8.75,27.44,2.65,1.89,-6.17
1210,92.12,-29.56,45.06,2.93,0.74,-5.4
1220,96.81,-82.37,61.44,4.08,-1.54,-6.63
1230,120.62,-153.44,79.37,5.52,-3.78,-9.78
1240,145,-213.44,78.75,6.43,-5.29,-13.95
1250,171.81,-194.25,52.75,7.01,-6.16,-19.62
1260,146.31,-145.25,12.69,8.1,-2.6,-23.59
1270,124.5,-87.94,-17.87,8.54,-0.12,-21.07
1280,121.87,-35.88,-37.63,8.49,1.96,-23.78
1290,46.94,3.75,-38,8.84,8.31,-16.85
1300,-13.19,1,-9.25,9.33,9.26,-13.42
1310,-18.19,-29.5,33.31,9.54,8.72,-13.42
1320,-7,-38.25,70,10.77,6.17,-16.53
1330,-14.19,-19.75,95.62,11.92,4.76,-19.22
1340,-66.69,24.31,102.31,13.72,3.53,-15.74
1350,-96.81,46.38,83.19,14.45,5.23,-9.47
1360,-70.75,23.62,82.31,13.79,8.51,-10.08
1370,-64.94,4.06,107.37,14.31,8.15,-11.84
1380,-90.56,-0.5,142.75,15.05,6.19,-12.8
1390,-123.69,10.56,172.06,17.51,0.41,-12.68
1400,-154.25,29.06,185.87,18.15,-1.88,-11.63
1410,-169.87,39.81,178.12,19.27,-2.74,-10.4
1420,-163.94,48.25,158.19,19.28,-2.41,-9.18
1430,-150.62,46.94,141.44,19.31,0.02,-8.71
1440,-152.25,33.06,143.81,18.72,0.44,-9.96
1450,-164.62,18.75,164.62,18.97,-0.66,-11.59
1460,-179.12,7.25,186,19.07,-5.03,-16.01
1470,-180.12,9.25,203.62,18.53,-7.27,-18.8
1480,-158.75,39.31,215.5,18.07,-9.33,-21.18
1490,-134.19,92.19,219.81,16.34,-13.16,-22.79
1500,-121.81,155.44,219.75,15.43,-14.86,-21.37
1510,-123.94,215.37,219,14.49,-16.91,-18.66
1520,-128.75,259.25,212.12,13.78,-19.05,-15.29
1530,-123.25,281.5,196.81,13.51,-22.66,-8.79
1540,-100.87,274.44,159.69,13.12,-23.38,-6.22
1550,-60.31,244.94,102.19,12.71,-22.71,-4.21
1560,-10.75,197.5,57.56,10.06,-19.67,-5.07
1570,22.75,151.19,41.31,9.7,-19.61,-6.43
1580,29.12,122.31,40.25,9.4,-20.88,-8.25
1590,12.31,111.12,31.31,9.4,-22.85,-9.26
1600,-6.62,112.62,-3.12,9.7,-25.28,-8.37
1610,-8.63,111.19,-65.75,9.11,-24.38,-8.24
1620,-6.87,103.75,-137.25,7.61,-21.14,-8.05
1630,6.44,91,-177.75,4.19,-13.64,-7.77
1640,27.31,78.62,-177.81,3.5,-11.54,-9.14
1650,7.12,74.06,-153.56,3.13,-10.37,-7.85
1660,-9.38,57.63,-114.94,3,-11.5,-6.59
1670,-2.37,40.94,-100.25,4.17,-15.74,-6.68
1680,0.37,21.19,-120.31,3.8,-15.87,-6.82
1690,1.62,3,-153.94,2.89,-14.8,-7.33
1700,-1.12,-6.87,-189.56,1.92,-11.94,-7.49
1710,-4.94,-14.56,-223.5,1.25,-9.42,-7.35
1720,5.5,-20.75,-241.94,0.54,-6.73,-7.53
1730,33.94,-23.37,-237.06,0.09,-4.28,-7.53
1740,73.06,-23.94,-212.25,0.1,-2.02,-9.23
1750,97.62,-20.19,-178.94,0.53,-1.93,-9.46
1760,106.12,-17.31,-147.81,0.79,-2.17,-9.11
1770,109.75,-20.06,-123.5,1.33,-3.03,-7.89
1780,112.06,-31,-109.37,1.64,-3.29,-7.1
1790,118.81,-45.63,-103.31,1.1,-3.02,-6.04
1800,148.19,-53.75,-92.81,-0.17,-2.48,-3.8
1810,196.69,-55.81,-72.19,-0.18,-2.66,-3.06
1820,260.19,-76.37,-43.69,0.23,-3.15,-2.78
1830,318.94,-141.94,-9.88,0.72,-3.79,-3.34
1840,350.56,-220.69,15.31,3.02,-6.06,-10.56
1850,337.87,-276.37,19.31,3.05,-7.2,-13.74
1860,283.5,-308.94,8.38,4.09,-7.53,-15.49
1870,229.44,-246.25,-18.75,4.67,-8.47,-20.12
1880,156.19,-192.94,-47.44,5.3,-8.26,-18.43
1890,98.5,-158.12,-81.31,5.53,-7.27,-15.61
1900,107,-145.31,-117.56,5.49,-5.6,-14.25
1910,141.56,-150.94,-147.44,5.1,-1.01,-17.31
1920,159.12,-153.12,-163.06,4.3,1.23,-19.46
1930,156.56,-125.75,-158.87,4.16,3.17,-20.91
1940,133.5,-84.81,-141.75,5.99,6.38,-19.53
1950,114.37,-49.56,-126,6.96,7.74,-18.47
1960,104.62,-23.37,-118.12,7.53,9.45,-17.71
1970,90.06,-4.31,-112.37,7.48,11.4,-17.37
1980,57.13,8.06,-93.69,7.36,13.11,-16.7
1990,18.94,26.19,-65.75,5.46,13.95,-14.88
2000,3.37,52.69,-7.62,5.71,14.23,-12.66
2010,-3.94,69.56,56.69,6.12,12.27,-8.19
2020,-8.63,68.75,116.37,6.81,10.03,-7.09
2030,-20.87,41.56,168.5,8.38,6.95,-7.01
2040,-52.88,-16.5,201.94,11.32,1.04,-5.23
2050,-28.31,-72.56,204.94,12.73,-1.26,-8.58
2060,10.19,-106.5,161.19,12.28,0.65,-12.03
2070,44.44,-80.5,128.44,11,4.45,-15.21
2080,33.63,-35.63,147.44,11.08,8.4,-17.98
2090,-38.19,-3.81,201.56,11.1,7.01,-17.18
2100,-127.37,3.12,266.5,12.43,2.88,-16.11
2110,-205.19,-16.69,310.37,15.54,-8.09,-15.06
2120,-244.44,-42.5,317.5,16.87,-12.6,-17.24
2130,-251.62,-58.88,286.56,18.41,-14.66,-16.09
2140,-181.06,-49.63,222.12,18.86,-14.17,-16.03
2150,-95.06,-12.25,153.94,18.24,-10.72,-23.26
2160,-114.06,32.94,105.19,15.55,-5.25,-20.82
2170,-119.44,79.19,122.5,13.32,-2.25,-18.73
2180,-115.19,110.87,185,12.08,-5.89,-17.07
2190,-115.19,110.87,185,11.94,-9.6,-14.51
2200,-136.87,135.06,277.69,12.06,-13.74,-12.99
2210,-100.37,145.5,275.87,12.87,-19.08,-10.64
2220,-68.87,143.87,252.56,12.62,-20.23,-10.28
2230,-53.75,130.31,226.94,11.94,-20.09,-10.36
2240,-53.75,130.31,226.94,13.31,-20.86,-11.63
2250,-48.81,107.31,206.5,12.1,-22.68,-14.81
2260,-49.69,86.69,124.87,11.62,-23.28,-15.78
2270,-21.37,112.94,89.37,11.49,-23.59,-16.66
2280,-8.63,155.44,45.81,8.84,-20.73,-14.48
2290,-8.63,155.44,45.81,7.77,-18.77,-10.58
2300,-24.75,190.94,11.44,7.1,-17.98,-9.2
2310,32.25,194.25,-15.88,6.74,-17.45,-8.22
2320,44.75,172.25,-31,5.84,-17.1,-7.51
2330,44.63,141.87,-46.5,5.57,-17.65,-8.43
2340,44.63,141.87,-46.5,5.32,-18.06,-8.5
2350,18.37,114.44,-67,3.83,-17.8,-8.31
2360,-19.19,97.5,-132.94,3.27,-16.09,-7.23
2370,-14.5,87.5,-168.19,2.68,-13.73,-6.23
2380,20.75,65.62,-189,2.04,-11.23,-6.39
2390,20.75,65.62,-189,0.76,-7.19,-9.15
2400,78.62,54.38,-194.87,0.16,-5.93,-10.18
2410,145.37,101.44,-183.69,-0.23,-5.09,-9.99
2420,116.19,130.19,-176.75,-1.06,-3.6,-7.85
2430,72.56,172.44,-169.44,1.13,-5.31,-4.64
2440,72.56,172.44,-169.44,-2.16,-3.43,-2.12
2450,74.37,191.31,-177.75,-0.53,-3.96,-3.21
2460,38.25,68.69,-147.25,1.05,-4.06,1.17
2470,14.5,-26.5,-120.5,0.81,-5.03,-0.47
2480,77.75,-80.94,-107.81,1.3,-6.04,-4.61
2490,77.75,-80.94,-107.81,2.29,-6.21,-9.37
2500,128.69,-98.37,-108.75,1.61,-4.55,-10.8
2510,159.62,-67,-129.37,1.84,-3.95,-12.34
2520,102.62,-28.31,-138.81,1.42,0.01,-7.25
2530,50.5,-14.5,-139.94,1.3,1.45,-3.92
2540,50.5,-14.5,-139.94,1.3,1.45,-3.92
2550,57.44,-36.5,-131.5,1.98,2.59,-3.63
2560,75.19,-142.31,-98.5,3.58,6.27,-10.16
2570,81.44,-198.25,-54.75,3.73,5.45,-12.06
2580,55.19,-276.75,-9.44,2.98,4.44,-14.2
2590,55.19,-276.75,-9.44,2.98,4.44,-14.2
2600,40.81,-198,20.12,4.65,1.74,-17.52
2610,11.69,-75.12,1.06,6.4,6.34,-12.96
2620,-1.87,-81.25,8.69,6.85,8.74,-10.57
2630,28.19,-105.25,35.25,8.03,9.45,-13.21
2640,28.19,-105.25,35.25,8.03,9.45,-13.21
2650,25.25,-126.62,65.62,8.92,9.19,-14.75
2660,-72.81,-171.69,135.69,9.45,7.3,-13.94
2670,-31.87,-171.5,179.75,14.98,0.39,-19.06
2680,-10.25,-125.62,157,18.33,-4.4,-21.53
2690,-10.25,-125.62,157,18.33,-4.4,-21.53
2700,-88.44,-109.12,68.31,18.56,-1.16,-17.12
2710,-76.31,-99.37,5.94,16.9,8.77,-16.81
2720,-51.44,-91.56,-12,15.94,10.93,-16.9
2730,-100.37,-101.56,3.94,14.82,10.38,-16.96
2740,-143.56,-99.5,47.63,14.82,10.38,-16.96
2750,-157.69,-74.12,98.31,15.34,8.24,-17.49
2760,-185.94,-46.13,135.5,14.65,5.62,-13.12
2770,-223.37,-23.94,157.56,13.2,6.5,-11.18
2780,-228.44,-10.81,180.87,12.37,6.51,-10.35
2790,-194.31,-13.81,224.94,12.37,6.51,-10.35
2800,-136.06,-29.62,292.81,11,5.46,-10.9
2810,-74.25,-34.44,370.94,15.59,-11.98,-20.48
2820,-100.75,-23.31,372,14.07,-12.56,-18.45
2830,-186.81,-25.06,322.44,14.04,-15.14,-19.13
2840,-159.06,10.63,283.06,14.04,-15.14,-19.13
2850,-115.06,60.75,248.19,13.98,-16.34,-18.17
2860,-131.94,83.37,214.44,13.85,-16.6,-13.64
2870,-121.69,82.06,186.06,13.88,-18.52,-16.45
2880,-63.88,70.5,173.12,14.01,-20.49,-18.84
2890,-18.06,68.94,167.12,14.01,-20.49,-18.84
2900,-23.75,85.56,151.37,14.23,-22.48,-19.44
2910,-45.81,107.44,115.75,13.26,-24.07,-16.29
2920,-46.31,120.69,60.81,12.08,-21.99,-14.68
2930,-29.87,126.37,-0.62,10.62,-19.38,-14.03
2940,14.38,120.62,-47.31,10.62,-19.38,-14.03
2950,58.88,105.94,-68.31,8.11,-16.78,-15.66
2960,71.81,92.87,-74.31,6.69,-16.84,-15.39
2970,76.62,92.62,-84.12,5.12,-15.31,-14.52
2980,90.5,100.12,-107.12,4.14,-13.44,-13.82
2990,92,101.12,-135.69,4.14,-13.44,-13.82
3000,86.37,95.06,-154.75,3.02,-11.58,-12.92
3010,97.19,89.75,-159.87,1.5,-9.75,-13.39
3020,106.81,87.62,-160.44,1.24,-9.76,-12.99
3030,101.12,88.87,-161.12,1.04,-10.18,-12.44
3040,88.25,88.12,-161.44,1.04,-10.18,-12.44
3050,74.62,82.37,-168.62,0.2,-10.32,-11.41
3060,67.62,73.75,-185.44,-1.54,-7.79,-8.35
3070,93,51.75,-215.12,-1.47,-4.86,-11.84
3080,152.06,54.44,-221.06,-1.61,-4.2,-8.66
3090,101.5,44.06,-200.81,-1.61,-4.2,-8.66
3100,108.69,25.12,-169,-0.95,-5.85,-8.91
3110,157.31,20.75,-160.81,-0.96,-8.03,-9.69
3120,131.06,13.5,-180.25,-1.84,-5.38,-9.08
3130,124.5,9.69,-219.69,-2.25,-3.25,-9.36
3140,130.06,-2.81,-241.75,-2.25,-3.25,-9.36
3150,126.19,-24.25,-244.37,-2.32,0.25,-10.38
3160,130.69,-40.56,-230.62,-0.96,0.45,-12.36
3170,141.19,-49.94,-205.69,-1.25,0.74,-13.47
3180,154.37,-49,-191.62,-0.55,3.36,-13.68
3190,164.62,-29.94,-185.94,-0.55,3.36,-13.68
3200,163.25,-15.69,-179.62,-0.75,4.91,-13.12
3210,174.75,-5.37,-167.69,-1.85,9.55,-12.12
3220,181,5.81,-149.19,-1.9,10.64,-10.74
3230,180.19,18.06,-116,-1.83,10.51,-10.07
3240,184.94,34.25,-68.25,-1.83,10.51,-10.07
3250,184.81,46.94,-10.13,-0.28,6.91,-9.38
3260,155.31,27.5,46.5,1.76,2.83,-6.64
3270,125.44,-8.13,69.81,2.7,2.45,-5.73
3280,119.12,-67.06,69.19,2.7,2.45,-5.73
3290,122.44,-133.5,56.63,3.84,3.23,-9.17
3300,108.31,-186.69,38.19,4.02,4.05,-11.27
3310,72.06,-234.06,23.06,4.34,4.92,-12.39
3320,21.69,-296.37,13.63,3.83,6.99,-12.09
3330,7.62,-338.37,17.94,3.08,7.85,-14.03
3340,97.25,-280.19,45.69,5.61,6.52,-17.37
3350,170.81,-241.56,66.56,7.82,4.43,-21.62
3360,140.62,-211.62,56.94,9.21,7.12,-23.67
3370,107.25,-172.44,42.19,9.89,9,-24.27
3380,89.5,-138.75,44.25,10.61,10.12,-25.99
3390,31.69,-116.62,56.06,11.77,10.48,-27.7
3400,-51.63,-89.44,68.62,11.7,10.08,-26.32
3410,-111.12,-50.81,74.87,12.23,10.69,-23.48
3420,-130,-13.25,85.31,10.63,13.93,-19.92
3430,-123.06,-1.31,129.37,10.26,13.86,-14.81
3440,-119.25,-13.31,184.62,10.83,12.18,-14.16
3450,-129.31,-30.62,238.87,11.63,8.91,-14.14
3460,-152.94,-54.88,265.31,14.63,1.6,-14.67
3470,-159.12,-72.69,250.69,15.19,0.43,-15.79
3480,-139.06,-72.75,211,14.59,1.11,-17.31
3490,-121.44,-56.44,186.75,12.05,3.5,-20.07
3500,-130.06,-32.06,205.62,11.17,2.57,-20.75
3510,-155,-6.44,254.94,10.9,0.03,-21.16
3520,-180.69,22.12,299.25,10.84,-3.08,-21.02
3530,-199.69,51.44,321.19,11.36,-8.51,-18.34
3540,-206.37,75.06,320.31,11.95,-10.02,-16.18
3550,-194.12,86.25,301.12,12.67,-10.68,-13.7
3560,-157,76.81,270.12,14.42,-9.39,-10.24
3570,-81.56,48.06,239.69,14.78,-7.77,-11.9
3580,11.69,19.44,223.75,14.77,-6.55,-15.81
3590,68.69,7.44,230.87,14.4,-6.5,-20.24
3600,82.56,18.19,252.31,14.29,-9.85,-26.5
3610,77.19,48.13,262.31,13.71,-11.78,-28.31
3620,65.31,89.75,255.31,12.88,-13.64,-29.58
3630,45.38,140.31,231.62,10.15,-14.96,-28.05
3640,41.44,200.37,194.62,7.33,-13.95,-25.87
3650,63.94,268.12,163.44,4.18,-12.21,-22.15
3660,84.81,320.44,165.69,1.27,-11.57,-18.14
3670,75.19,336.37,204.37,-2.16,-15.74,-12.13
3680,55.75,327.56,261.19,-2.99,-18.26,-10.02
3690,52.75,303.5,310.94,2.74,-24.18,-11.1
3700,15.5,251.12,260.75,3.36,-30.67,-6.07
3710,50.81,201,155.31,4.15,-32.08,-7.77
3720,86.62,162.44,-1.75,2.96,-31.61,-9.51
3730,54,118.75,-163.81,-1.2,-22.08,-8.54
3740,44.25,76.25,-277.37,-2.45,-17.11,-10.26
3750,60.31,47.5,-328.56,-3.04,-13.49,-11.44
3760,76.25,35.69,-339.19,-3.65,-11.01,-12.36
3770,91.5,41.5,-329.25,-3.85,-7.81,-14.47
3780,81.31,57.19,-308.25,-3.83,-6.81,-14.3
3790,48.38,70.75,-278.75,-3.23,-6.24,-12.79
3800,29.12,76.81,-248.37,-1.47,-6.67,-8.27
3810,63.19,65.81,-236,-2.56,-5.81,-10.91
3820,121.62,67.56,-230.25,-2.06,-5.75,-13.33
3830,66.06,57.44,-214.44,-2.45,-5.71,-13.39
3840,-7.5,50.13,-193.44,-1.17,-6.18,-7.75
3850,-8.94,34.06,-181.44,-0.22,-7.34,-7.32
3860,30.12,11.13,-196.62,0.27,-7.77,-6.89
3870,91.06,-9.75,-226.44,-0.47,-5.09,-10.29
3880,148.75,-17.62,-243.25,-0.92,-3.64,-11.39
3890,144.81,-24,-248.5,-0.86,-2.7,-10.76
3900,150.94,-19.12,-239.06,-1.4,-3.09,-12.79
3910,112.25,-11.06,-235.19,-0.43,-2.37,-10.37
3920,57.44,-23.06,-240.31,-0.83,-1.57,-7.44
3930,96.12,-40.63,-249.19,-0.72,-1.7,-7.36
3940,162.69,-62.13,-272.5,-1.09,-0.01,-10.14
3950,192.75,-89.75,-304.81,-1.54,2.15,-11.39
3960,193,-119.62,-329,-2.01,4.93,-11.73
3970,219.94,-143.81,-335.19,-2.42,7.57,-11.96
3980,296.31,-152.37,-319.12,-3.47,11.48,-16.05
3990,374.06,-137.62,-280,-3.88,12.19,-19.56
4000,385.5,-99.06,-225,-3.97,12.16,-22.67
4010,302.56,-46.56,-168.06,-3.09,11.03,-22.68
4020,163.75,1.44,-129.81,-2.08,10.12,-18.68
4030,52.31,34.5,-132.12,-1.1,10.48,-13.57
4040,31.12,67.81,-176.56,-1.57,13.98,-8.6
4050,95,115.62,-232.94,-4.61,16.32,-6.51
4060,132.06,39.69,-218.25,-1.57,19.17,-6.11
4070,130.62,-65.06,-133.56,-1.2,21.02,-7.21
4080,136.37,-133.25,-54.94,0.89,21.47,-14.08
4090,119,-174.94,26.12,0.69,19.55,-16.74
4100,92.12,-189.31,96.56,1.47,18.32,-17.57
4110,86.87,-150.25,155.5,6.52,8.18,-17.89
4120,70,-113.81,164.75,6.54,6.53,-16.55
4130,43.44,-74.06,132.75,5.43,7.38,-14.66
4140,40.75,-53.94,123.31,5.18,8.23,-13.76
4150,30.56,-57.5,140.31,5.97,7.4,-13.48
4160,-7.44,-80.19,162.12,6.96,6.05,-13.64
4170,-46.88,-110.12,168.56,8.38,4.92,-15.21
4180,-88.5,-127.44,157.75,10.09,4.55,-16.38
4190,-129.37,-124.75,132.37,10.63,7.09,-14.3
4200,-138.69,-104.5,106.62,10.23,10.86,-12.07
4210,-118.62,-120.75,118.06,11.79,10.35,-11.79
4220,-87.37,-153.06,133.62,7.64,15.29,-16.17
4230,-37.06,-160.81,190.69,6.55,14.72,-19.41
4240,4.44,-132.31,288.69,6.07,10.53,-23.01
4250,-24.44,-89.62,377.06,12.8,-0.1,-19
4260,-159.56,-172.62,441.37,12.21,-3.83,-21.97
4270,-144.56,-177.94,417.37,12.56,-5.16,-24.94
4280,-28.5,-16.87,335.37,15.73,-0.41,-19.48
4290,-147.25,-63.88,303.25,12.78,2.59,-18.38
4300,-145.06,-141.12,360.94,11.43,-1.72,-25.12
4310,5.12,-81.19,400.81,12.51,-8.03,-32.24
4320,19.56,41,369.87,11.79,-11.99,-31.92
4330,-107,136.56,309.44,10.17,-9.93,-24.76
4340,-200.62,161.81,277.44,9.82,-8.9,-18.2
4350,-162.44,150.87,267.94,9.3,-10.35,-16.78
4360,-88.81,161.37,241.12,9.79,-10.59,-16.44
4370,-114.56,156.62,205.5,10,-10.04,-14
4380,-173.69,118.25,174.44,9.96,-9.16,-11.47
4390,-171.75,75.12,147.56,9.19,-7.43,-12.44
4400,-144.56,38.56,127.31,8.91,-6.55,-14.27
4410,-137.56,10.31,112.87,8.28,-5.33,-15.2
4420,-101.87,9.69,102.94,5.61,-2.72,-17.81
4430,-46.94,40.38,103.25,4.73,-1.96,-18.28
4440,-18.94,76.56,116.5,4.16,-2.1,-17.67
4450,-17.87,101.69,132.12,2.82,-4.74,-15.58
4460,-19.5,121.12,135.5,3.15,-6.12,-14.04
4470,-25.37,129.87,122.25,3.35,-6.96,-12.32
4480,-29.44,120.06,91.37,3.03,-6.96,-11.13
4490,-23.31,103.37,50.63,1.93,-5.27,-10.39
4500,-20.75,88,12.81,1.03,-3.85,-9.89
4510,-22.12,73.81,-12.06,0.43,-2.81,-9.49
4520,-15.19,58.56,-21.19,0.05,-2.56,-10.08
4530,-4.31,45.69,-25,-0.25,-2.89,-10.71
4540,-1.19,41.06,-32.38,-0.43,-3.02,-10.92
4550,-13.81,39.94,-44.44,-0.75,-2.58,-10.77
4560,-33,40.75,-55.81,-0.9,-1.63,-7.72
4570,-36.88,34.44,-62.56,-3.12,-0.68,-7.51
4580,-4.12,21.31,-58.69,-2.21,-1.26,-9.06
4590,-21.69,2.31,-47.75,-1.28,-3.13,-7.24
4600,-48.63,-36.88,-41.63,-1.43,-4.54,-7.33
4610,-19.19,-65.44,-54.19,-0.76,-5.6,-8.86
4620,5.81,-86.81,-80.56,-0.51,-5.9,-9.7
4630,14.75,-109.19,-106.94,-1.21,-5.6,-13.02
4640,23.69,-113.5,-122.81,-1.1,-6.12,-14.64
4650,8.44,-114.06,-132.31,-0.57,-6.34,-14.99
4660,-4.94,-119.81,-134.62,0.65,-8.38,-14.59
4670,15.75,-134.06,-129.31,0.85,-10.48,-16
4680,44.38,-142.75,-129.44,2.03,-12.45,-17.1
4690,46.69,-149.75,-139.75,3.82,-15.96,-19.23
4700,40.19,-157.25,-165.44,5.38,-17.02,-21.41
4710,8.56,-160.81,-206.31,6.74,-17.64,-22.18
4720,-43.5,-161.5,-259.62,7.27,-17.15,-21.21
4730,-25.87,-159.5,-324.94,7.58,-13.26,-22.56
4740,69.87,-150,-389.44,7.13,-10.6,-26.25
4750,157.69,-136.37,-443.25,6.62,-7.86,-29.75
4760,194.75,-123.12,-487.69,7.31,-1.31,-34.85
4770,218.44,-111.06,-535.94,6.33,3.03,-37.47
4780,267.37,-71.94,-591.56,4.47,6.41,-41.07
4790,303.19,-17,-639.25,2.11,9.97,-44.47
4800,270.81,53.94,-665.44,-4.91,18.66,-47.56
4810,190.19,148.69,-638.87,-8,22.13,-46.66
4820,98.12,259.81,-538.5,-8.89,24.74,-43.43
4830,23.25,375.94,-400.44,-10.18,23.11,-34.47
4840,-48.38,476.44,-266.62,-10.39,20.11,-29.04
4850,-137.06,539.69,-178.5,-9.98,18.15,-22.42
4860,-200.87,564.25,-131.06,-9.51,16.94,-16.08
4870,-198.31,559.44,-112.19,-8.18,15.99,-8.42
4880,-152.25,546.44,-114.31,-6.89,16.24,-6.54
4890,-100.37,544.12,-127.5,-6.75,16.79,-5.89
4900,-73.19,512.5,-130.06,-6.13,17.78,-3.07
4910,-96.06,384.12,-98.44,-5.64,17.78,-1.08
4920,-119.19,293.87,-59.94,-4.81,17.52,0.04
4930,-115.62,209.69,-19.44,-4.55,15.61,-2.47
4940,-72.19,142.44,18.25,-3.09,13.56,-4.61
4950,-101.25,90.19,42.56,-2.81,12.31,-3.98
4960,-150.5,36.13,48.63,-3.07,11.87,-4.03
4970,-142.06,8.5,46,-3.24,11.85,-6.89
4980,-121.75,4.62,42.69,-3.75,12.38,-7.92
4990,-140.5,-2.62,48.69,-4.12,13.12,-7.41
5000,-187.81,-25.75,70.94,-4.68,12.35,-5.57
5010,-215.12,-57.56,106.81,-5.23,10.68,-4.58
5020,-214.62,-89.56,139.37,-5.29,9.51,-5.49
5030,-188.44,-108.56,162.75,-5.38,9.38,-6.03
5040,-177.25,-135.25,198.06,-5.41,7.3,-7.78
5050,-170.87,-167.81,244.87,-4.96,4.68,-10.48
5060,-187.12,-193.31,282.25,-4.28,2.54,-11.78
5070,-210,-208.06,303.81,-2.89,-0.99,-13.43
5080,-222.5,-223.75,322.81,-2.92,-3.11,-15.71
5090,-266,-256.19,352.19,-3.75,-5.52,-16.39
5100,-266,-256.19,352.19,-4.3,-8.38,-16.1
5110,-385.81,-378.75,440.75,-2.24,-15.16,-17.36
5120,-360.25,-316.31,423.44,-1.6,-16.96,-17.36
5130,-295.94,-255.87,369.25,0,-18.16,-17.09
5140,-233.12,-202.06,288,2.29,-16.71,-13.93
5150,-149.81,-163,195.06,2.98,-15.22,-14.27
5160,-68.56,-150.44,116.75,2.26,-13.45,-16.08
5170,-50.31,-156.12,66.12,0.75,-12.6,-17.77
5180,-82.69,-158.37,40.31,1.82,-13.17,-17.21
5190,-118.62,-154,14.31,2.34,-13.2,-15.9
5200,-118.62,-154,14.31,2.7,-12.57,-14.47
5210,-128.62,-154.56,-66.5,3.21,-9.17,-11.27
5220,-89.69,-181.37,-105.62,2.6,-6.82,-11.92
5230,-18.69,-222.81,-121.81,1.74,-5.3,-14.89
5240,45.69,-253.5,-105.06,2.24,-6.33,-23.28
5250,45.69,-253.5,-105.06,3.39,-8.79,-25.78
5260,55,-264.94,-66.25,5.12,-11.85,-26.07
5270,10.5,-239.69,-9.25,6.96,-14.61,-25.22
5280,43.31,-205.75,-46.44,10.57,-16.47,-24.81
5290,88.69,-175.75,-131.75,11.03,-13.96,-24.84
5300,88.69,-175.75,-131.75,10.68,-10.21,-25.51
5310,127.19,-161.44,-220.62,8.96,-5.34,-30.45
5320,132.44,-170.19,-280.75,13.39,-5.2,-28.23
5330,107.62,-179,-278.31,13.99,-8.14,-33.5
5340,80.19,-172.12,-319.81,13.34,-6.6,-35.1
5350,80.19,-172.12,-319.81,13.2,2.8,-32.71
5360,63.19,-110.62,-385.94,12.74,6.44,-33.17
5370,130.19,17.69,-413.19,11.38,10.09,-32.25
5380,124.25,60.44,-367.25,10.99,13.81,-30.54
5390,131,89.06,-278.25,10.5,12.37,-31.99
5400,131,89.06,-278.25,10.5,12.37,-31.99
5410,129.44,137,-192.25,10.97,6.53,-29.85
5420,81,240.06,-94.75,9.81,1.56,-25.51
5430,78.5,281.94,-99.25,8.93,0.93,-22.49
5440,75.19,308.44,-122.81,7.97,1.84,-18.44
5450,75.19,308.44,-122.81,7.97,1.84,-18.44
5460,105.37,314.06,-144.62,6.6,3.33,-16.63
5470,135.56,287.75,-167,5.08,5.25,-16.26
5480,142.31,278.62,-160.75,3.39,5.68,-16.66
5490,140.69,277.06,-154.44,3.32,6.2,-16.05
5500,140.69,277.06,-154.44,3.32,6.2,-16.05
5510,133.06,282.31,-157.06,2.73,7.17,-15.36
5520,102.37,278.94,-170.37,2.05,11.15,-13.01
5530,84.94,257.06,-174.06,1.97,12.68,-13.03
5540,71.44,230.87,-172.94,1.71,14.15,-13.72
5550,71.44,230.87,-172.94,1.71,14.15,-13.72
5560,46.75,212.62,-163.31,-0.9,16.71,-14.33
5570,-47.31,181.69,-67.31,-0.88,15.99,-12.58
5580,-76.12,166.12,-7.06,-0.62,14.82,-12.67
5590,-119.44,155.19,42.69,-0.1,11.55,-9.08
5600,-119.44,155.19,42.69,-0.1,11.55,-9.08
5610,-139.06,129.94,82.87,0.55,9.51,-8.6
5620,-137.06,67.81,116.06,0.49,6.64,-9.33
5630,-137.06,67.81,116.06,0.49,6.48,-9.11
5640,-142.5,47.69,121.19,0.59,6.3,-9.15
5650,-157.75,25.75,129.5,0.59,6.3,-9.15
5660,-170.12,-3.44,142.19,0.64,5.72,-9.96
5670,-180.62,-26.5,156.62,0.26,3.65,-12.53
5680,-196.25,-33.44,169.94,-0.07,2.92,-11.88
5690,-211.44,-30.62,182.5,0.04,1.19,-9.8
5700,-224.62,-31.37,194.31,0.04,1.19,-9.8
5710,-237.37,-42.5,203.87,-0.57,1.22,-9.98
5720,-219.37,-56.94,204.56,-2.21,0.38,-10.16
5730,-219.62,-59.88,213.81,-2.46,-1.96,-10.73
5740,-245.25,-75.94,238.56,-2.73,-5.38,-12.33
5750,-277.69,-111.44,273.62,-2.73,-5.38,-12.33
5760,-324.62,-163.69,306,-2.7,-8.38,-13.09
5770,-332.94,-199.37,331.5,1.59,-18.59,-17.8
5780,-284.69,-199.44,335,3.81,-20.12,-17.59
5790,-254.31,-176,284.69,5.75,-18.16,-15.81
5800,-255.37,-159.81,182.25,5.75,-18.16,-15.81
5810,-254.44,-161.44,65.69,4.38,-14.67,-15.1
5820,-214.44,-159.25,-23.69,2.44,-8.7,-16.6
5830,-169.12,-148.69,-68.44,1.9,-6.1,-15.21
5840,-176.44,-145.44,-78.5,1.77,-6.22,-14.84
5850,-195.62,-141.69,-72.69,1.77,-6.22,-14.84
5860,-213.56,-131.5,-59.19,2.08,-7.15,-13.12
5870,-217.25,-122.25,-52,3.59,-7.35,-7
5880,-171.94,-121.12,-58.31,3.51,-6.09,-7.05
5890,-96.69,-138.37,-69.69,3.44,-5.44,-9.16
5900,-26.75,-164.69,-68.37,3.44,-5.44,-9.16
5910,21.69,-183.87,-48.25,3.82,-6.83,-10.37
5920,44,-196.81,-24.25,3.98,-11,-13.27
5930,31,-215.87,-16.69,4.63,-14.57,-15.24
5940,-10.25,-241.81,-35.63,4.74,-15.1,-14.99
5950,-58.19,-266.94,-84.94,4.74,-15.1,-14.99
5960,-76.81,-305.06,-158.75,4.87,-14.47,-16.28
5970,-45,-343.19,-252.5,1.82,-2.77,-25.34
5980,1.69,-367.75,-341.5,0.76,0.29,-30.05
5990,61.88,-381.56,-386.87,-0.98,1.79,-35.72
6000,116.81,-380.62,-379.37,-0.98,1.79,-35.72
6010,119.94,-342.19,-343.12,-0.12,1.04,-41.61
6020,89.06,-267.37,-310.44,1.82,-0.13,-40.57
6030,53.69,-160.37,-325.37,0.59,3.24,-34.84
6040,21.31,-50.63,-374.5,0.28,5.01,-33.04
6050,1.12,21,-422.25,0.28,5.01,-33.04
6060,12.63,54.81,-471.5,1.11,7.58,-31.7
6070,85.69,73.5,-534.69,-6.17,17.99,-43.63
6080,223.56,95.87,-594.87,-8.86,20.44,-45.54
6090,282.56,145,-611.75,-11.77,22.45,-44.9
6100,194.69,225.44,-568.06,-11.77,22.45,-44.9
6110,82.81,341.44,-462.06,-14.04,23.22,-36.76
6120,-32.56,457.62,-324,-11.76,17.56,-22.22
6130,-146.62,525,-165.56,-9.83,13.16,-17.57
6140,-216.25,536.25,-12.25,-5.15,4.69,-11.49
6150,-250.87,506.06,109.12,-5.15,4.69,-11.49
6160,-254,459.12,179.12,-2.84,1.98,-9.79
6170,-205.12,417.81,194.37,2.97,-2.25,-9.02
6180,-120,390.87,162.94,3.3,-1.36,-9.46
6190,-34.31,371.81,93.75,3.2,0.79,-9.78
6200,34.75,360.81,9.75,3.2,0.79,-9.78
6210,89.44,355.25,-63.88,1.38,6.18,-10.94
6220,132.37,356.94,-116.31,-0.95,10.64,-12.47
6230,139.12,361.37,-146.62,-0.95,10.64,-12.47
6240,89.06,366.31,-153.37,-2.04,13,-11.07
6250,10.19,365.19,-129.31,-2.84,15.34,-8.27
6260,-68.31,359.94,-73.87,-3.18,14.94,-6.81
6270,-143.06,336.19,-4.81,-1.94,14.06,-4.59
6280,-201.5,261.31,63,-1.07,12.06,-1.14
6290,-224.31,149.56,120.69,-0.63,10.65,-2.44
6300,-222.06,71.94,164.19,-0.76,9.06,-4.84
6310,-225.75,14.88,194.5,-1.15,8.12,-7.19
6320,-235.31,-15.81,223.37,-2.01,5.99,-10.47
6330,-254.31,-22.37,261.81,-1.86,3.56,-10.81
6340,-266.87,-26.56,299.19,-1.38,0.45,-11.68
6350,-272.19,-30.69,315.94,0.01,-3.84,-11.56
6360,-266.69,-25.94,306.12,0.03,-4.55,-11.58
6370,-248,-20.44,279.5,0.01,-4.9,-10.42
6380,-223.31,-24.62,245.31,0.02,-4.79,-10.81
6390,-207.94,-33,207.44,-1,-2.79,-10.57
6400,-214.19,-46.38,178.5,-1.93,-1.33,-10.06
6410,-206.94,-56.69,172.25,-2.69,-0.63,-10.3
6420,-199.31,-68.06,186.75,-3.12,-2.26,-11.41
6430,-208.19,-84.44,209.94,-2.86,-3.43,-11.59
6440,-212.69,-98.12,227.69,-2.93,-4.47,-12.38
6450,-203.81,-104,235.75,-2.93,-6.11,-12.55
6460,-189.37,-117.94,239,-2.62,-6.46,-12.96
6470,-183.44,-131.37,242.06,-2.55,-6.76,-12.81
6480,-181,-150.56,251.69,-2.82,-7.38,-12.96
6490,-177.69,-193.19,278.44,-2.33,-9.97,-13.73
6500,-175.69,-245.75,320.12,-1.18,-13.31,-17.11
6510,-158.31,-208.94,336.5,-1.2,-16.27,-19.12
6520,-167.5,-167.25,330.94,1.8,-20.99,-18.21
6530,-179.19,-123.44,301.5,2.28,-22.19,-17.6
6540,-190.19,-91.87,251.06,2.76,-22.25,-16.69
6550,-211.94,-80.37,198.94,5.13,-22.39,-16.08
6560,-229.75,-91,123.94,6.19,-21.91,-17.03
6570,-252.56,-113.44,40.69,6.18,-20.83,-17.11
6580,-248.31,-132.5,-21,6.46,-19.75,-18.27
6590,-205.25,-131.56,-64.75,6.72,-17.01,-20.58
6600,-154.25,-108,-100.94,6.48,-14.53,-19.83
6610,-101.44,-79.12,-127.5,6.05,-11.95,-18.79
6620,-46.63,-64.69,-133.37,6.33,-10.62,-18.55
6630,-11.69,-75.37,-123.31,8.14,-10.42,-20.02
6640,9.19,-96.31,-113.12,8.91,-11.42,-22.52
6650,25.12,-112,-110.12,10.02,-12.25,-24.6
6660,23,-114.62,-114.75,11.81,-14.64,-26.66
6670,22.25,-104.94,-129.94,11.99,-14.89,-27.28
6680,49.94,-67.5,-169.06,11.34,-13.27,-27.56
6690,90,-9.19,-215.31,9.95,-6.7,-22.8
6700,118.62,36.81,-234.62,9.77,-5.48,-21.68
6710,129.44,50.94,-216.56,11.01,-6.4,-20.27
6720,118.25,49.44,-188,11.67,-8.96,-19.29
6730,111.19,39.88,-184.12,13.19,-12.24,-19.77
6740,115.81,34.44,-215.81,12.58,-11.4,-20.78
6750,138.44,42.25,-267,11.12,-9.27,-22.31
6760,166.87,65.06,-310.94,8.61,-3.72,-23.02
6770,195.94,96.12,-331.62,8.04,-1.7,-23.34
6780,233.5,130.31,-339.06,7.65,0.27,-23.74
6790,255.37,161.69,-339.81,7.19,2.17,-23.42
6800,257.37,189.31,-331.75,5.33,5.14,-21.84
6810,238.81,215.56,-317.31,4.92,5.96,-19.82
6820,197.69,236.19,-298.81,4.79,6.3,-17.28
6830,145.37,241.81,-279.69,4.2,7.13,-12.31
6840,107.12,232.25,-259.5,4.44,6.55,-11.02
6850,76.56,208.69,-236.06,4.68,5.25,-9.68
6860,52.63,170.69,-218.12,5.3,3.45,-9.01
6870,63.63,138,-220.94,4.9,3.15,-9.65
6880,111.06,123.06,-247.94,4.42,6.04,-9.97
6890,170.87,113.44,-277.5,3.79,9.15,-11.04
6900,215,103.19,-297.62,5.07,15.2,-14.9
6910,211.06,94.19,-315.31,3.63,16.69,-16.88
6920,151.87,94.56,-352.12,-2.25,23.39,-15.15
6930,75.37,110.19,-270.87,-0.2,26.58,-16.5
6940,37.38,127.94,-162.81,-0.78,26.07,-15.8
6950,-41.69,143.69,-56.19,-1.29,24.33,-12.58
6960,-95.75,166.12,49.06,-1.17,21,-10.37
6970,-115.25,173.81,137.94,-0.36,12.41,-6.9
6980,-126.31,159.44,198.44,0.51,8.66,-6.34
6990,-114.19,143.44,225.87,1.39,5.7,-6.55
7000,-113.31,125.25,227.06,2.32,2.87,-6.24
7010,-125.75,113.44,212.12,2.36,2.45,-6.26
7020,-145.5,106,192.19,2.31,2.97,-6.24
7030,-173.06,96.87,179.19,1.98,3.1,-2.93
7040,-165.12,61.69,176,1.16,4.67,-3.86
7050,-181.31,13.56,176.44,0.46,5.77,-1.93
7060,-204.06,-37.25,203.75,0.1,4.53,-2.8
7070,-204.62,-91.75,243.31,0,0.5,-7.16
7080,-226.56,-130.19,264.81,-0.23,-0.92,-6.93
7090,-227.56,-144.56,276.87,-0.65,-2.47,-8.95
7100,-222.31,-150.75,279.5,-1.14,-3.72,-10.4
7110,-268.12,-161.81,273.44,-1.58,-5.6,-9.27
7120,-333.94,-190.87,261.37,-2.29,-6.54,-9.92
7130,-397.87,-237.75,241.94,-2.92,-6.72,-10.89
7140,-471.06,-298.06,215,-4.01,-6.03,-12.16
7150,-500.19,-352.44,197.19,-5.56,-5.13,-13.3
7160,-484.69,-401.69,194.25,-6.85,-4.38,-12.45
7170,-431.44,-488.87,229.31,-7.49,-7.94,-20.83
7180,-303.87,-481.19,267.31,-6.08,-11.02,-27.56
7190,-213.94,-432.31,302.06,-5.28,-14.49,-30.49
7200,-190.62,-369.62,331.62,-3.97,-18.45,-31.85
7210,-150.69,-265.06,324.44,0.12,-25.07,-30.45
7220,-105.5,-136.06,259.62,1.08,-24.62,-27.76
7230,-87.81,-25.25,155.25,4.64,-22.55,-23.17
7240,-86.69,30.37,7.81,1.1,-12.85,-15.72
7250,-74,21.12,-122.5,1.18,-9.31,-15.58
7260,-32.63,-23.19,-164.19,1.73,-8.03,-18.36
7270,6.62,-70.37,-164.44,2.01,-7.81,-21.81
7280,33.63,-85.44,-157.75,4.69,-7.66,-24.79
7290,72.56,-66.69,-156.62,5.21,-6.63,-26.06
7300,117.37,-33.81,-167.5,5.43,-4.93,-26.91
7310,118.12,-7.81,-165.69,7.97,-5.86,-27.09
7320,75.81,2.62,-142.94,10.4,-10.09,-26.54
7330,26.75,6.44,-127,12.48,-14.26,-26.21
7340,7.5,9.06,-149.25,13.86,-16.81,-26.61
7350,29.56,22.87,-206.31,13.48,-14.86,-27.72
7360,67.12,57.75,-278.81,12.2,-10.19,-26.31
7370,104.56,96.25,-331.37,11.53,-5.23,-24.63
7380,135.19,122.5,-342.12,12.91,1.58,-22.1
7390,162.31,128.12,-315.69,13.23,1.7,-23.95
7400,187.06,124.31,-271.31,13.57,0.61,-26.02
7410,185.06,138.56,-241.25,14.23,0.58,-25.89
7420,170.44,161.81,-228.94,13.72,0.41,-25.93
7430,163.69,186,-225.31,12.71,0.51,-25.43
7440,162,217.37,-230.31,11.76,1.06,-24.19
7450,162.25,255.94,-243.62,9.07,4,-19.47
7460,152.75,286.5,-258.44,7.95,5.25,-17.24
7470,148.06,304.81,-265.19,7.25,6.27,-15.27
7480,135.5,310.37,-263.19,6.03,8.36,-10.6
7490,123.25,292.25,-256.19,5.8,9.28,-10.33
7500,129.56,253.75,-249.87,5.94,10.49,-11.39
7510,135.12,217.31,-252.94,5.5,12.2,-13.28
7520,125.62,203.75,-268,5.24,14.72,-15.9
7530,85,215.56,-295.87,-0.74,16.23,-15.63
7540,15.06,247.81,-334.75,-4.11,20.15,-12.56
7550,-35.63,317.75,-275.44,-3.73,22.69,-5.92
7560,-43.13,355.75,-207.31,-3.74,22.91,-0.25
7570,-56.75,309.87,-134.37,-2.99,23.16,2.47
7580,-87.44,201.56,-59.06,-2.91,23.52,4.93
7590,-99.5,90.25,27.06,-2.13,19.51,-0.41
7600,-84.62,-20.81,120.37,-1.06,14.9,-6.51
7610,-90.56,-84.06,185.19,-0.96,11.49,-10.25
7620,-117.12,-92.69,213.69,-0.95,7.72,-10.49
7630,-133.62,-68.81,231.5,-0.87,6.09,-12.27
7640,-113,-32.31,235.94,-2.01,5.87,-11.1
7650,-131,-7.75,244.94,-1.73,3.05,-6.98
7660,-137,-18.06,271.25,-1.74,0.51,-8.77
7670,-126.56,-41.19,289.69,-1.58,-1.2,-9.08
7680,-139.81,-58.88,290.44,-1.43,-2.12,-8.15
7690,-139.12,-76,284.75,-1.55,-4.21,-9.89
7700,-139.56,-97.06,283.69,-1.14,-5.44,-10.36
7710,-156.25,-115.5,282,-0.71,-6.48,-10.33
7720,-161.06,-127.25,273.56,0.53,-8.75,-11.69
7730,-157.56,-132.12,261.62,0.62,-9.78,-11.85
7740,-165.5,-140.5,248.75,1.13,-10.8,-11.47
7750,-175.31,-163.5,239.5,1.43,-11.71,-10.89
7760,-173.06,-194.62,231.62,4.51,-13.52,-11.92
7770,-146.56,-197.56,207.62,2.91,-13.97,-14.58
7780,-121.19,-153.12,149.44,3.49,-13.37,-14.77
7790,-141,-124.81,103.56,3.82,-11.4,-12.22
7800,-163.25,-113.81,75.56,4.38,-11.3,-11.41
7810,-183.87,-125.12,60.69,4.91,-11.29,-11.17
7820,-205.44,-149,40.63,4.96,-10.88,-11.63
7830,-228.31,-172.19,15.19,4.72,-8.92,-12.53
7840,-247.31,-182.75,-10.06,4.3,-6.9,-12.25
7850,-256.94,-184.37,-32.19,3.47,-4.22,-11.47
7860,-253.25,-194.19,-41.06,1.99,-0.24,-12.13
7870,-233.81,-221.75,-24.31,1.79,0.03,-13.71
7880,-195,-248.5,13.81,1.73,-1.12,-15.6
7890,-143.25,-261.5,55.69,2.41,-4.71,-18.93
7900,-97.62,-259.75,84.81,2.4,-6.29,-19.91
7910,-66.69,-253.25,102.75,2.62,-8.57,-20.76
7920,-50.31,-253.12,118.31,3.58,-11.39,-21.95
7930,-48.69,-260.87,125.62,3.83,-16.8,-26.3
7940,-58.56,-271.87,117.87,5.54,-19.06,-28.36
7950,-78.75,-265.19,81.94,6.09,-20.39,-28.74
7960,-81.12,-240.56,5.62,7.29,-19.15,-31.77
7970,-19.25,-180.44,-114.5,4.85,-14.63,-33.03
7980,46.31,-91.25,-232.62,2.4,-9.16,-32.19
7990,76.37,-13,-281.31,2.16,-6.42,-31.86
8000,69.69,37.31,-267.62,4.47,-6.58,-28.9
8010,42.38,67.69,-247,5.51,-8.03,-27.53
8020,27.5,82.37,-240,6.78,-9.98,-26.81
8030,31.94,91.31,-252.81,7.74,-10.94,-25.16
8040,59.88,100.56,-287.87,7.13,-9.84,-26.12
8050,102.81,107.31,-333.19,6.69,-7.24,-27.11
8060,102.81,107.31,-333.19,6.11,-3.38,-27.81
8070,142.87,122.19,-376.31,4.81,3.87,-31.97
8080,247.12,184.25,-411.56,3.82,6.7,-33.38
8090,248.75,229.19,-394,2.75,8.73,-33.14
8100,219.19,283.5,-345.44,1.87,8.02,-29.19
8110,219.19,283.5,-345.44,2.98,5.41,-25.04
8120,113,379.25,-241.19,4.05,3.43,-20.1
8130,67.19,392.19,-242.62,4.51,5.29,-12.93
8140,76.56,388.25,-282.5,4.19,8.91,-11.91
8150,125.44,373.87,-337.5,4.68,12.76,-12.12
8160,125.44,373.87,-337.5,3.43,16.37,-13.57
8170,170.75,341.94,-388.19,-1.24,25.31,-16.32
8180,166.56,274.44,-338.69,-1.02,26.07,-16.57
8190,143.5,270.75,-239.31,-0.38,25.02,-16.18
8200,116.19,274.56,-150.44,0.47,23.4,-13.44
8210,116.19,274.56,-150.44,0.48,23.2,-11.1
8220,41.44,285.44,-91.81,0.17,23.02,-10.16
8230,-30.25,253.25,-13.56,-0.6,22.98,-9.39
8240,-60.19,216.06,31.5,-1.95,20.85,-8.86
8250,-83.5,184.94,90,-2.76,18.16,-8.72
8260,-83.5,184.94,90,-2.52,15.26,-8.39
8270,-101.06,168.19,149,-1.7,8.34,-8.05
8280,-123.81,151.25,234.5,-0.98,5.02,-7.32
8290,-149.5,127.62,251,-0.53,2.49,-6.55
8300,-163.56,112.25,244.19,-0.68,0.93,-6.28
8310,-163.56,112.25,244.19,-1.47,-1.1,-7.1
8320,-167.56,89.69,226.62,-2.3,-1.37,-6.89
8330,-203.06,65.37,189.56,-3.41,-1.4,-6.75
8340,-205.69,53.5,184.62,-4.11,-2.51,-6.32
8350,-198.12,37.88,188,-4.09,-3.25,-6.44
8360,-198.12,37.88,188,-4.15,-4.06,-6.84
8370,-198.75,-1.12,193.62,-4.15,-4.06,-6.84
8380,-228.06,-78.06,194.31,-3.33,-6.77,-9.39
8390,-234.75,-109.94,198.37,-2.76,-7.9,-10.8
8400,-234.19,-128.94,204.69,-2.14,-8.8,-11.23
8410,-234.19,-128.94,204.69,-2.14,-8.8,-11.23
8420,-221,-146.25,209.69,-1.06,-10.31,-12.3
8430,-192.87,-161.56,190.62,-1.41,-11.38,-14.15
8440,-170.81,-112.06,165.44,-0.72,-12.05,-13.85
8450,-184.62,-76.25,139.5,-0.74,-11.55,-11.39
8460,-184.62,-76.25,139.5,-0.74,-11.55,-11.39
8470,-207.69,-57.88,123.06,-0.45,-11.51,-9.93
8480,-182.75,-88.37,136.31,0.93,-14.91,-10.89
8490,-164.62,-118.62,152.56,2.21,-16.53,-12.3
8500,-134.5,-132.31,162.94,2.63,-18.02,-14.33
8510,-134.5,-132.31,162.94,2.63,-18.02,-14.33
8520,-126.62,-98.56,110.87,4.98,-20.92,-15.32
8530,-165.94,-73.19,-45.56,7.02,-20.23,-11.62
8540,-165.94,-73.19,-45.56,6.52,-18.08,-9.72
8550,-165.94,-73.19,-45.56,6.62,-14.69,-11.01
8560,-123.75,-160.81,-138.37,6.62,-14.69,-11.01
8570,-82.44,-208.06,-145,7.36,-14.19,-14.09
8580,-82.44,-208.06,-145,10.37,-13.45,-22.96
8590,-53.31,-227.06,-149.87,11.93,-13.97,-23.58
8600,-46.44,-216.94,-152.44,12.53,-15.72,-23.31
8610,-57.75,-177.75,-138.75,12.53,-15.72,-23.31
8620,-34.25,-171.56,-152.44,14.93,-17.33,-22.09
8630,-34.25,-171.56,-152.44,14.08,-15.27,-24.88
8640,102.94,-197.75,-177.5,13.31,-13.3,-27.01
8650,154.12,-190.12,-164.06,14.07,-13.26,-27.06
8660,154.12,-190.12,-164.06,14.07,-13.26,-27.06
8670,177.31,-156.25,-82.87,15.62,-16.59,-25.67
8680,177.31,-156.25,-82.87,17.92,-21.22,-28.32
8690,235.37,-152.06,-131.62,17.09,-19.26,-30.32
8700,250.06,-130.44,-203.37,15.63,-15.85,-31.75
8710,250.5,-88.81,-270.25,15.63,-15.85,-31.75
8720,247.25,-34.69,-319.5,14.88,-12.19,-32.34
8730,250.19,28.81,-353.5,10.69,0.19,-28.23
8740,254.94,79.62,-356.81,9.75,2.33,-27.16
8750,231.56,104.44,-320.81,9.7,2.48,-23.14
8760,198.62,128.06,-288.56,9.7,2.48,-23.14
8770,190.94,151.12,-288.62,9.39,2.66,-19.62
8780,217.19,156.06,-303.37,8.18,4.61,-17.45
8790,234.19,141.19,-310.81,6.17,7.51,-20.51
8800,198.31,130.37,-304.81,5.95,8.48,-20.34
8810,152.37,137.62,-290.06,5.95,8.48,-20.34
8820,121.31,157.31,-280.31,6.26,9.09,-20.76
8830,92,182.81,-281.94,4.11,13.49,-20.28
8840,56.81,203.81,-279.44,4.14,14.12,-19.41
8850,19.37,211.56,-275.31,-2.5,16.52,-16.89
8860,-15.81,215.94,-274.31,-2.5,16.52,-16.89
8870,-22.75,232.94,-198.62,-1.69,18.13,-14.77
8880,-6.12,245.56,-128.25,-1.02,17.61,-15.35
8890,-58.06,237.06,-63.94,0.21,14.92,-9.93
8900,-129.62,209.25,10.44,1.05,11.47,-9.64
8910,-142.94,179.69,62,1.05,11.47,-9.64
8920,-151.87,159.37,75.37,0.92,8.39,-9.63
8930,-152.81,144.75,63.94,-0.62,7.82,-7.97
8940,-147.06,122.12,63.13,-1.14,7.82,-8.77
8950,-154.25,100.25,84.37,-1.25,7.12,-8.22
8960,-158.56,85.44,114.62,-1.25,7.12,-8.22
8970,-153.56,72.44,143.56,-1.92,3.99,-9.49
8980,-159.75,67.94,166.37,-1.57,0.56,-9.23
8990,-180.56,61.31,177.87,-1.64,-1.31,-7.48
9000,-199.19,42.88,178.25,-2.27,-1.37,-7.72
9010,-203.31,22.75,175.44,-2.27,-1.37,-7.72
9020,-208,4.94,182.75,-3.12,-1.67,-7.88
9030,-213.62,-13.44,199.56,-3.23,-5.07,-8.06
9040,-216.31,-37.94,222.25,-3.24,-6.74,-9.16
9050,-219.25,-61.81,243.31,-2.59,-8.45,-9.34
9060,-223.56,-76.81,256.75,-2.59,-8.45,-9.34
9070,-218.12,-91.06,255.06,-0.57,-12.46,-10.11
9080,-206.37,-96.62,228,1.2,-14.41,-11.67
9090,-205.44,-92.37,178.25,1.61,-12.32,-10.53
9100,-210.12,-86.75,121.31,1.61,-12.32,-10.53
9110,-209.5,-81,78.25,0.98,-10.18,-9.66
9120,-211.87,-84.87,60.56,0.49,-8.45,-8.72
9130,-219.19,-98.5,61.25,0.12,-7.37,-7.79
9140,-213,-107,70.25,0.45,-8.41,-6.53
9150,-192.62,-108.06,68.62,1.15,-9.34,-6.7
9160,-172.69,-114.5,47.06,1.67,-9.54,-6.6
9170,-155.56,-158.56,11.63,1.41,-7.22,-4.84
9180,-151.75,-234.44,-15.81,0.34,-4.83,-5.84
9190,-142.87,-309.44,-13.88,-0.51,-2.65,-8.59
9200,-138.62,-400.12,21.56,-0.9,-2.33,-12.37
9210,-173.19,-494.62,90.69,1.42,-7.37,-20.22
9220,-162.87,-445.37,136.69,0.28,-12.5,-26.66
9230,-169.5,-401.69,160.62,2.29,-17.16,-30.72
9240,-155.37,-338.37,147.19,5.62,-23.66,-31.59
9250,-78.5,-265,106.37,6.39,-25.71,-32.38
9260,8.19,-204.56,51.5,7.96,-27.11,-33.87
9270,53.25,-154.19,-31.56,9.44,-28.07,-35.76
9280,48.63,-104.12,-109.69,10.08,-24.05,-37.55
9290,54.69,-52.94,-146.06,10.48,-23.41,-39.99
9300,22.19,19.62,-177.19,11.18,-23.35,-40.33
9310,-13.31,92.69,-219.31,11.49,-22.05,-32.65
9320,-11.31,143.25,-271.75,10.52,-19.64,-29.18
9330,11.13,179.44,-322.37,9.9,-15.24,-24.94
9340,61.75,191,-358.69,8.32,-5.34,-18.42
9350,114.62,190.75,-368.44,7.15,-0.39,-16.77
9360,135.69,169.19,-327.81,7.19,2.82,-15.11
9370,158.44,134.44,-257.25,8.19,3.49,-14.18
9380,198.94,117.37,-200.75,10.78,-0.71,-16.13
9390,217.75,116.87,-181.12,11.26,-3.19,-17.71
9400,215.12,122.75,-194.44,11.97,-4.32,-17.99
9410,220.25,134.31,-224.31,11.34,-1.63,-19.92
9420,213.19,160.94,-250.87,11.33,0.83,-19.98
9430,184.56,194.56,-270.81,11.12,3.85,-18.88
9440,154.94,222.31,-269.5,10.3,6.82,-17.27
9450,130.06,236.06,-239.25,8.53,9.88,-14.19
9460,105.19,238.81,-197.75,8.27,9.94,-12.47
9470,79.81,223.19,-157.5,8.16,9.67,-10.76
9480,62.69,188.19,-123.44,7.46,9,-8.89
9490,56,137.19,-93.5,7.36,8.21,-9.68
9500,58.19,94.5,-76.81,8,7.24,-10.59
9510,43.69,93.87,-75.62,7.19,6.46,-15.92
9520,10.13,108.87,-77.19,6.48,7.89,-13.05
9530,39.38,124.94,-76.62,5.85,7.85,-14.57
9540,27.31,149,-76.87,5.55,8.11,-15.52
9550,-13.38,161.06,-71.25,4.72,9.77,-10.63
9560,-18.31,164.12,-60.63,5.08,9.7,-9.53
9570,-19,171.06,-61.69,5.29,9.35,-9.65
9580,-39.38,173.62,-57.81,3,10.09,-8.57
9590,-59.25,148.56,-30.44,2.9,9.99,-8.15
9600,-76.12,121.12,-0.06,2.76,9.26,-8.32
9610,-101.31,93.06,22.62,2.98,8.4,-8.13
9620,-114.37,61.75,39.25,2.39,7.95,-7.02
9630,-115.31,38,58.13,1.82,7.71,-7.81
9640,-128.56,17.81,83.25,1.45,7.32,-8.53
9650,-147.19,5.19,111,0.82,5.33,-7.93
9660,-145.5,-2.44,136.19,0.45,3.45,-8.41
9670,-145.5,-4.75,150.25,0.56,2.04,-9.45
9680,-168.25,-20.87,163.56,0.42,1.07,-7.94
9690,-159.31,-51.88,180,1.18,-2.24,-7.58
9700,-141.06,-84.69,192.75,1.58,-4.08,-10.05
9710,-138,-112.44,200.5,1.56,-5.54,-11.41
9720,-136.87,-138.12,217.69,0.9,-8.63,-11.92
9730,-129.31,-145.56,231.44,3.28,-11.16,-13.19
9740,-99.62,-83.5,203.06,3.07,-13.69,-16.06
9750,-96.19,-25.25,156.81,4.74,-14.97,-17.38
9760,-84.69,31.19,109.81,4.9,-12.84,-13.13
9770,-45.69,76.75,86.81,4.3,-11.39,-11.64
9780,-32.5,113.12,96.5,3.47,-11.56,-10.87
9790,-66.5,166.94,120.94,2.64,-15.16,-7.34
9800,-101.37,264.25,145.44,1.89,-16.47,-1.84
9810,-83.87,227.94,134,7.07,-19.43,3.65
9820,-135.06,91.81,65.25,11.5,-19.72,12.63
9830,-133.62,-77.31,-17.87,11.04,-16.62,12.49
9840,-41.44,-243.81,-56.94,9.69,-14.01,4.51
9850,22,-348.62,-48.5,9.92,-12.94,-6.1
9860,-1.87,-417.06,-24.19,11.87,-10.96,-13.36
9870,-5.25,-381.12,-3.69,12.77,-11.67,-15.69
9880,33.63,-287.25,7.31,13.95,-14.46,-19.7
9890,31.56,-200.62,-8.63,17.04,-15.3,-19.27
9900,22.06,-129.37,-28.06,18.89,-14.44,-16.11
9910,30.56,-92,-45.25,18.25,-13.67,-14.69
9920,24.5,-93.31,-53.69,19.77,-11.77,-11.99
9930,58.81,-127.81,-54.44,22.23,-12.24,-12.41
9940,96.87,-152.5,-65.75,23.42,-12.54,-16.25
9950,102.37,-155.5,-85.44,24,-11.98,-18.1
9960,128.62,-125.62,-103.12,22.92,-9.86,-21.69
9970,139.12,-74.37,-102.75,23.64,-10.69,-23.52
9980,110.5,-17.87,-118.25,25.43,-12.07,-22.58
9990,122.5,39.56,-173.06,25.02,-10.03,-19.63
10000,159.75,72.69,-201.62,20.33,-0.47,-17.07
