timestamp,gyrox,gyroy,gyroz,accx,accy,accz
10,-0.44,-0.94,3.75,0,0,0
20,-2.31,-0.69,5,0,0,0
30,-3.44,-0.44,5.94,0,0,0
40,-4.5,-0.19,6.37,8.17,3.36,-13.88
50,-4.5,0,6.44,8.17,3.33,-13.78
60,-4.62,0,6.25,8.18,3.27,-13.6
70,-4,-0.31,6.12,8.13,3.27,-13.45
80,-89.37,-71.31,153,3.23,7.03,-5.99
90,-98.37,-109.62,138.62,4.61,6.51,-7.33
100,-101.69,-148.25,100.56,4.04,9.65,-8.33
110,-35.13,-132.44,86.81,3.61,14.87,-9.97
120,-24.31,-105.37,139.19,5.67,14.95,-16.64
130,-109.69,-77.62,209.19,7.96,11.84,-14.23
140,-158.06,-50.44,257,10.41,7.35,-12.51
150,-186.69,-41.81,268.94,14.35,0.83,-10.24
160,-188.06,-43.19,255.5,15.27,-0.12,-9.46
170,-135.87,-33.5,238.94,15.39,-0.94,-12
180,-81.87,-3,224.81,14.98,-1.25,-12.63
190,-17,61.75,220.5,12.84,-1.67,-17.14
200,-29.56,137.19,239.75,11.2,-2.57,-15.82
210,-79.62,194.69,278.62,9.97,-4.64,-12.79
220,-123.44,226.25,318.94,8.86,-13.46,-8.15
230,-163.69,232.75,341.06,8.22,-17.34,-5.34
240,-146.37,234.75,343.44,6.73,-20.3,-3.24
250,-76,256.19,352.06,11.82,-26.21,-1.2
260,-11.31,269.12,299.94,8.8,-29.89,-2.71
270,-18.25,244.56,155.44,6.62,-30.22,-1.1
280,-6.19,222.75,33.19,6.05,-29.4,0.41
290,36.63,203.31,-93.81,0.86,-22.39,-1.56
300,38.63,181.87,-190.44,-2.39,-17.41,-1.68
310,28.94,163.69,-231.5,-4.46,-14.45,-1.81
320,19.06,156.69,-242.37,-7.34,-11.94,-1.1
330,8.06,157,-246.5,-8.83,-10.93,0.65
340,26.81,157,-244.94,-9.92,-9.92,2.25
350,66.69,146.44,-233.5,-11.72,-9.55,2
360,82,125.94,-221.81,-12.62,-10.6,3.5
370,100.81,97.75,-223.62,-13.29,-11.47,3.13
380,120,76.19,-240.06,-14.09,-11.6,2.32
390,121.5,57.88,-261.12,-16.06,-8.77,2.25
400,129.06,43.69,-275.25,-17.34,-7.31,2.1
410,145.75,34.56,-277.44,-17.32,-5.55,1.73
420,155.19,26,-264.94,-19.07,-4,1.28
430,144.87,20,-234.37,-18.8,-2.36,4.46
440,186.75,3,-209.37,-18.58,-1.97,3.45
450,235.87,7.31,-189.56,-18.08,-1.5,0.94
460,210.31,18.94,-166.19,-17.44,0.01,-0.07
470,163.62,6,-135.94,-15.45,0.46,0.7
480,126.19,-17.44,-116.81,-15.76,1.53,2.86
490,123.25,-58.13,-102.62,-15.22,5.33,2.08
500,146.56,-78.81,-99.31,-14.59,7.94,0.21
510,169.06,-84.44,-90.5,-15.15,9.6,-1.92
520,140.56,-99,-54.44,-16.2,10.51,-3.23
530,88.75,-93.69,41.88,-15.68,12.25,-0.13
540,103.56,-71.37,139.75,-13.79,9.98,-1.23
550,86.75,-86.5,190.12,-11.77,8.18,-2.05
560,33.88,-135.56,206.37,-9.06,7.09,-1.66
570,23,-201.25,209,-7.56,6.29,-2.46
580,20.81,-281.56,197.31,-6.52,6.9,-3.27
590,67.19,-270.94,172,-6.05,8.77,-6.22
600,140.5,-222.5,147.25,-3.75,14.76,-15.77
610,129,-183.19,145.44,-3.92,18.58,-16.65
620,94.37,-133.56,182.25,-1.64,21.1,-16.14
630,32.63,-112.25,265.62,3,15.73,-17.73
640,-71.31,-104.06,348.31,6.13,7.77,-17.52
650,-185.12,-116.87,356.44,8.4,3.2,-13.84
660,-165.5,-82,302.94,9.75,2.02,-12.23
670,-127.25,-27.5,248,10.81,1.97,-11.44
680,-136.31,17.19,208.75,9.75,3.43,-7.83
690,-122,52.63,197.62,9.16,3.66,-5.21
700,-103.25,62.19,201.94,8.21,1.76,-3.2
710,-90.19,52.19,214.75,8.23,-0.05,-4.45
720,-91.56,40.69,233.69,8.21,-2.53,-6.59
730,-106.62,49.69,252.06,9.8,-9.29,-9.41
740,-135,78.37,259,9.8,-12.31,-7.93
750,-143.94,110.12,240.19,10.43,-14.01,-5.96
760,-115.62,137.94,202.44,10.09,-14.55,-4.14
770,-78.75,143.87,165.75,8.99,-15.44,-3.5
780,-46.63,143.44,130.5,8.12,-15.94,-4.26
790,-27,148.44,100.56,7.44,-16.44,-4.95
800,-23.87,154.25,75.56,4.97,-17.28,-5.12
810,-20.87,163.5,58.38,4.07,-17.1,-4.71
820,-1.37,179.69,41.19,3.59,-17.25,-4.46
830,14.19,193.44,3.87,2.58,-17.56,-4.11
840,17.75,197.62,-46,-0.11,-17.5,-2.04
850,25.25,196.25,-92.69,-1.27,-17.28,-1.39
860,34.06,189.31,-134,-2.46,-16.47,-0.72
870,37.69,178.94,-169.56,-5.73,-15.06,-1.2
880,19.19,178.31,-198.62,-6.93,-14.18,0.86
890,10.25,162.75,-218.06,-8.26,-14.35,1.92
900,29.69,144.19,-237.06,-9.42,-15.14,1.93
910,54.94,128.56,-260.69,-11.65,-15.53,1.71
920,82.81,112,-285.12,-13.09,-14.99,1.06
930,103.5,100.31,-307.31,-14.6,-13.62,0.49
940,101.87,82.62,-319.87,-16.86,-10.33,1.4
950,105.44,59.63,-320.81,-17.13,-9.22,1.08
960,120.62,49.94,-313.19,-18.48,-8.41,0.31
970,127.25,51.56,-299.5,-17.38,-7.64,2.26
980,163.25,29.44,-291.87,-19.25,-6.17,0.37
990,180.81,38.25,-290.62,-20.05,-4.55,0.66
1000,177.12,61.06,-275.87,-19.94,-3,1.4
1010,192.25,62.81,-254.37,-20.2,-0.13,2.72
1020,197.56,16.5,-224.81,-19.85,2.69,5.28
1030,221.44,-57.69,-182,-19.54,5.32,4.46
1040,260.87,-130.75,-130.62,-17.07,6.86,-5.28
1050,235.5,-225.44,-91.75,-16.53,7.97,-5.42
1060,188,-304,-61.69,-17.57,11.2,-8.89
1070,235.75,-185.81,-19,-18.1,12.22,-15.74
1080,201.44,-71.81,54.06,-14.67,12.61,-15.49
1090,114.31,13,140.37,-11.88,8.99,-10.73
1100,65.12,65.75,172.12,-8.9,5.56,-6.05
1110,27.31,64.94,127.12,-7.19,8.86,3.21
1120,43.81,22.62,51.56,-8.49,13.53,1.83
1130,78,-46.81,1.94,-9.44,17.78,-1.87
1140,32.19,-150.56,17.81,-9.35,21.94,-3.8
1150,-22.44,-228.81,91.19,-8.71,21.89,-10.12
1160,-73.75,-243.81,168.69,-3.07,17.35,-12.58
1170,-127.94,-183,176,-1.43,14.7,-10.27
1180,-141.56,-129.62,157.62,0.7,16.98,-6.64
1190,-167.75,-100.06,164.25,1.51,17.14,-2.81
1200,-189.37,-114.31,184.06,2.38,16.85,-0.36
1210,-180.75,-161.12,208.69,3.12,16.1,-1.11
1220,-172.75,-200,231.75,4.57,14.12,-8.27
1230,-182.69,-216.62,256.87,5.45,13.37,-10.43
1240,-208,-222.75,293.19,6.14,11.83,-11.25
1250,-220.06,-224,333.81,8.07,6.16,-12.35
1260,-220.06,-224,333.81,8.38,2.51,-13.49
1270,-129.44,-193.37,420.44,8.43,-0.79,-16.88
1280,-74.19,-130.69,465.25,9.26,-11.75,-22.57
1290,-81.87,-48.25,493.44,9.49,-16.18,-21.34
1300,-90,46.88,494,9.32,-20.48,-19.83
1310,-109.19,121.06,474.25,9.12,-24.18,-17.52
1320,-121.69,168.75,438.44,5.14,-25.83,-10.57
1330,-79.37,213.37,406.94,13.32,-29.15,-9.09
1340,-44.81,221.75,251.44,7.29,-28.2,-8.62
1350,-44.81,221.75,251.44,3.9,-19.85,-2.81
1360,-42.06,215.25,123.75,1.95,-16.59,-3.69
1370,46.88,198.87,23.25,0.69,-14.58,-3.72
1380,45.31,187.69,17.06,-0.16,-13.94,-3.55
1390,47.19,182.87,6.62,-1.42,-13.81,-3.43
1400,47.19,182.87,6.62,-2.86,-13.57,-4.04
1410,51.63,183.94,-15.56,-3.9,-13.48,-4.12
1420,32.5,188.69,-63.38,-4.62,-14.51,-1.37
1430,52.5,176.81,-100.44,-5.48,-14.53,-2.27
1440,74.25,169.81,-146.19,-6.76,-13.43,-2.65
1450,74.25,169.81,-146.19,-8.93,-10.71,-3.47
1460,89.81,169.31,-183.44,-9.67,-10.02,-3.55
1470,60.5,165.06,-218.56,-10.49,-9.48,-3.22
1480,28.75,156,-228.62,-11.34,-9.32,-3.27
1490,6.19,154.19,-233.25,-11.87,-8.8,0.53
1500,6.19,154.19,-233.25,-14.9,-8.48,0.3
1510,22.44,150.19,-234.94,-14.52,-9.89,-2.47
1520,58,134.06,-245,-15.32,-7.02,2.12
1530,79.94,94.12,-239.12,-15.42,-7.99,0.27
1540,142.31,56.25,-231.56,-15.64,-9.2,-3.51
1550,142.31,56.25,-231.56,-15.74,-9.36,-5.44
1560,147.69,38.69,-239,-16.84,-8.83,-6.09
1570,114.62,60.69,-262.62,-17.16,-8.73,-6.2
1580,70.56,77,-280.44,-17.55,-7.98,-4.01
1590,31.56,78.87,-294.56,-17.85,-5.67,0.91
1600,31.56,78.87,-294.56,-17.88,-4.79,1.6
1610,45.06,77.31,-301.87,-18.59,-3.94,1.29
1620,117.12,84.56,-290.37,-16.89,-3.71,2.06
1630,170.19,81.5,-282.87,-18.83,-1.68,1.38
1640,209,59.31,-277.44,-19.28,0.55,2.48
1650,209,59.31,-277.44,-19.57,3.85,3.19
1660,231.06,-0.06,-267.94,-19.57,3.85,3.19
1670,293.44,-94.75,-250.19,-21.65,9.03,-4.84
1680,195.06,-124.94,-194.75,-22.21,11.93,-3.24
1690,107,-134.37,-62.81,-19.01,11.38,-0.86
1700,107,-134.37,-62.81,-19.01,11.38,-0.86
1710,74,-152.81,34.25,-12.73,-0.61,-2.71
1720,41.63,-185.94,-4.87,-9.65,-3.49,-0.41
1730,106.37,-193.94,-81.75,-11.33,4.32,-1.08
1740,168.69,-222.19,-130.62,-11.97,7.85,-3.24
1750,168.69,-222.19,-130.62,-11.97,7.85,-3.24
1760,165.44,-264.81,-139.06,-12.33,10.62,-5.16
1770,147.87,-258.19,-95.87,-12.19,17.42,-10.42
1780,122,-239.44,-25.5,-10.9,18.02,-11.25
1790,90.56,-209.94,59.63,-8.15,17.49,-11.36
1800,90.56,-209.94,59.63,-8.15,17.49,-11.36
1810,75.5,-146.75,134.75,-2.94,12.18,-9.28
1820,61.75,-88.56,192.12,1.9,3.37,-5.36
1830,7.44,-74.44,202.62,5.44,2.97,-1.03
1840,-32.25,-82.25,163.12,5.26,5.72,-3.17
1850,-10.31,-102.87,100.62,5.26,5.72,-3.17
1860,27,-110.75,36.06,4.38,10.74,-4.94
1870,45.56,-102.19,16.06,4.61,22.09,-6.73
1880,55.25,-97.06,51.38,3.81,22.12,-9.73
1890,62.06,-97.94,126,7.24,18.14,-12.15
1900,39.06,-83.75,220.19,7.24,18.14,-12.15
1910,-33.94,-59.75,275,10.63,10.24,-9.27
1920,-80.87,-20,284.69,11.49,6.92,-3.72
1930,-93.06,-6.25,277.37,10.56,7.55,-2.31
1940,-70.81,-7.75,262.25,7.02,10.06,-5.57
1950,-21.69,-13.19,264,7.02,10.06,-5.57
1960,24.81,-3.62,292.44,5.01,10.98,-8.32
1970,34.31,23.56,350.25,3.34,1.49,-10.49
1980,-0.75,42.88,424.25,3.38,-2.88,-9.76
1990,-40.94,61.13,485.62,3.35,-6.66,-9.19
2000,-72.56,67.62,523.19,3.35,-6.66,-9.19
2010,-87.25,61.75,541.44,3.67,-14,-8.57
2020,-75.37,61.88,532.12,3.98,-17.52,-7.77
2030,-39.94,77.81,492.25,3.9,-17.96,-7.13
2040,10.63,106.5,435.5,2.71,-17.83,-4.81
2050,60.06,138.75,374.81,2.71,-17.83,-4.81
2060,101.5,165.87,317.94,1.9,-17.56,-4.12
2070,121.5,173.69,280,0.42,-19.8,-3.04
2080,127.56,172.75,273.56,2.91,-22.27,-4.15
2090,145.87,167.75,251.44,0.58,-22.9,-5.26
2100,148.81,157.75,153.94,0.58,-22.9,-5.26
2110,121.06,154.81,27.12,-0.96,-20.76,-4.19
2120,107.44,166.75,-82.75,-7.09,-9.16,-0.79
2130,63,164.5,-155.56,-8.17,-7.44,-0.62
2140,71.5,158.12,-181.69,-9.61,-5.87,-2.16
2150,109.06,163.87,-186.5,-9.61,-5.87,-2.16
2160,116.87,177.37,-182.31,-10.14,-6.24,-2.78
2170,74.31,191.94,-173.94,-11.27,-7.16,-0.51
2180,13.44,210.31,-166.06,-12.18,-7.73,4.76
2190,-13.56,221.87,-166.5,-12.24,-7.46,5.88
2200,11.56,218.69,-178.44,-12.24,-7.46,5.88
2210,49.75,194.37,-197.25,-12.06,-6.14,5.4
2220,81.75,157.44,-211.56,-13.72,-3.22,1.45
2230,156.37,109.56,-208.06,-13.1,-4.1,-1.35
2240,172.81,85.37,-188.19,-13.09,-5.35,-0.18
2250,72.69,48.25,-171.81,-13.09,-5.35,-0.18
2260,-16.62,17.56,-168,-11.94,-7.05,2.11
2270,-26.94,-9.19,-186.81,-13.83,-5.77,0.06
2280,65.12,-4.62,-209.06,-15.14,-2.53,-1.76
2290,104.56,-11.69,-233.44,-15.65,-1.43,-2.04
2300,93.81,-29.62,-243.87,-15.65,-1.43,-2.04
2310,103.19,-30.94,-240.5,-15.86,-0.63,-2.52
2320,115.87,-22.06,-228,-14.83,-1.74,-2.82
2330,90.25,-22.81,-213,-14.5,-2.39,-1.43
2340,31.5,-28.56,-207.62,-14.37,-2.79,0.32
2350,-17.31,-34.88,-214.81,-14.37,-2.79,0.32
2360,-29.5,-46.38,-229.94,-14.61,-1.47,3.65
2370,17.5,-60.19,-245.25,-14.73,-0.04,4.18
2380,115.06,-78.5,-252.56,-15.47,1.79,3.44
2390,216.75,-96.81,-242.56,-16.35,5.89,0.18
2400,285.69,-119.06,-205.37,-16.12,7.28,-1.31
2410,314.25,-149.12,-139.56,-15.23,7.76,-2.72
2420,313.12,-180.94,-64.37,-14.5,6.6,-4.26
2430,271.37,-214.19,-7.19,-11.42,3,-6.46
2440,231.5,-199.69,17.06,-10.18,0.51,-7.48
2450,236.31,-165.94,4.06,-6.59,-2.02,-9.42
2460,224.19,-156.81,-49.5,-4.65,-1.12,-12.15
2470,210.06,-146.12,-115.87,-4.55,0.88,-13.24
2480,210.19,-119.44,-172.31,-4.45,3.44,-14.18
2490,216.37,-76.06,-206.56,-5.64,9.74,-15.03
2500,220.37,-14.38,-220.25,-5.77,12.6,-14.62
2510,189.69,49.56,-217.75,-5.9,14.28,-13.31
2520,95.56,89.37,-198.75,-10.49,17.48,-10.23
2530,6.31,114.94,-113.62,-8.8,19.48,-1.55
2540,-26.25,118.69,-28.75,-8.31,18.75,1.14
2550,-48.31,80.69,44.81,-7.22,17.93,3.53
2560,-54.69,8,114.37,-4.96,15.57,5.15
2570,-14.25,-77.44,174.12,-3.87,13.79,0.82
2580,43.63,-133.94,209.62,-2.26,12.83,-4.43
2590,70.06,-134.56,218.5,-1.34,13.11,-8.43
2600,64.25,-92.75,217.5,1,14.72,-12.6
2610,6.37,-59.69,222.87,1.46,15.31,-12.34
2620,-80.81,-50.31,249,2.51,14.8,-10.96
2630,-148.37,-63.69,291.44,4.71,10.31,-9.46
2640,-165.06,-82.75,329.75,6.13,7.63,-10.35
2650,-147.06,-91.44,350.25,6.71,5.74,-11.57
2660,-111.12,-68.44,348.94,6.41,5.2,-12.51
2670,-74.81,-12.19,341.62,5.4,5.62,-12.58
2680,-73.69,43.13,351.12,4.6,5.17,-11.19
2690,-104.19,71.25,380.62,5,3.89,-9.62
2700,-141.87,66.19,420.06,4.48,-4.99,-11.53
2710,-200.12,53.56,443.62,4.87,-8.79,-10.89
2720,-250.19,40.5,456.87,5.22,-12.55,-10.2
2730,-247.5,36.81,457.5,5.05,-18.92,-10.44
2740,-198.62,64.81,428.87,4.31,-19.85,-10.58
2750,-140.12,127.44,380.37,3.05,-19.73,-9.85
2760,-99.5,198.25,334.56,1.57,-19.12,-7.73
2770,-62.63,254.19,299.37,-2.14,-17.83,-3.29
2780,-24.25,298.37,283.44,-3.88,-16.88,-2.55
2790,-18.37,332.31,300.12,-3.76,-17.03,-1.52
2800,-58.63,341.94,291.69,-2.93,-19.15,1.79
2810,-117.5,312.69,214.06,-3.82,-18.06,4.66
2820,-143.06,283.19,149.81,-3.85,-16.68,7.18
2830,-99.62,251.12,86.25,-4.03,-15.31,8.64
2840,-36.94,200.19,28.25,-4.26,-12.45,8.54
2850,3.56,130.87,-19.31,-4.75,-10.88,6.62
2860,14.56,66.75,-52.13,-5.65,-9.67,4.45
2870,13.13,28,-73.5,-4.63,-8.96,1.89
2880,5.62,3.75,-90,-4.94,-8.99,0.95
2890,3.5,-7.06,-107.69,-5.57,-9.49,-0.36
2900,-3.56,3.25,-133.12,-5.78,-9.92,-1.03
2910,-29.56,11.63,-166.81,-6.94,-8.63,-0.51
2920,-50.56,5.19,-194.56,-7.18,-8.25,-0.73
2930,-44.56,-2.81,-215.5,-7.47,-8.16,-1.64
2940,-29.44,3.37,-232.94,-9.41,-7.99,-3.05
2950,-30.19,22.44,-239.94,-9.89,-8.53,-2.17
2960,-37.19,34.13,-236.31,-9.75,-9.81,-1.16
2970,-27.87,33.63,-238.62,-9.69,-11.67,-0.77
2980,-0.62,32,-264.19,-8.74,-11.59,-1.69
2990,31.25,28.69,-298.81,-10.25,-11.85,-1.86
3000,67.69,27.25,-343.37,-13.69,-8.91,-3.73
3010,82.81,46.31,-357.12,-12.87,-6.62,-3.78
3020,22.44,29.12,-338.37,-13.32,-7.21,-3.67
3030,-17.06,16.19,-314.81,-12.85,-8.09,-3.62
3040,-0.69,23.31,-307.06,-12.26,-8.89,-3.85
3050,47.69,36.06,-318.19,-12.97,-8.09,-4.12
3060,97.37,55.75,-331.5,-12.71,-7.36,-4.9
3070,114.19,65.5,-335.44,-14.26,-6.46,-3.44
3080,146.19,75.5,-329,-14.46,-5.32,-4.17
3090,171.44,94.37,-317.75,-15.06,-5.31,-3.35
3100,171.25,102.62,-317,-15.04,-4.85,-1.97
3110,177.5,104.31,-324.87,-16.52,-1.93,0.83
3120,201.5,91.75,-325,-16.22,-1.09,1.23
3130,241.75,62.13,-307.56,-16.49,-0.67,0.12
3140,282.75,32.75,-280.81,-16.32,-0.5,-1.72
3150,314.69,18.44,-254.06,-14.93,0.39,-4.59
3160,333.69,7.75,-228.12,-14.65,0.64,-5.63
3170,346.69,14.88,-204.81,-14.67,0.5,-6.79
3180,344.25,27.44,-187.44,-14.06,-0.67,-8.54
3190,313.69,29.81,-184.31,-13.32,-1.2,-8.83
3200,269.25,18.56,-200.62,-12.42,-1.25,-8.78
3210,238.94,2.87,-248.69,-12.69,3.78,-8.26
3220,248.25,-4.19,-319.87,-12.76,7.57,-8.52
3230,263.19,-13.31,-390.87,-10.95,9.91,-9.7
3240,238.69,-21.94,-468.06,-22.56,16.52,-11.56
3250,179.81,1.69,-378.75,-19.22,25.34,-10.69
3260,155.25,46.75,-222.06,-18.2,25.05,-10.33
3270,84.25,84.25,-52.06,-16.12,21.96,-6.49
3280,14.31,95.69,85.06,-12.27,13.99,2.04
3290,16.06,78.62,158.31,-8.86,11.87,3.98
3300,72.25,33.19,198.5,-6.15,7.32,-0.69
3310,86.37,-15.31,198.44,-4,5.2,-3.93
3320,75.25,-9.06,153.94,-2.37,9.12,-3.3
3330,62.25,-5.87,125.19,-2.92,11.39,-3.91
3340,48.69,-12.88,131,-3.45,13.32,-4.46
3350,38.19,-9.38,160.44,-2.38,14.23,-5.37
3360,26.31,-11.44,200.25,-2.41,13.61,-6.74
3370,-0.31,-2.81,225.81,-3.03,14.18,-6.34
3380,-34.56,14.69,246,-3.65,15.27,-4.05
3390,-69.25,6.62,283.06,-1.75,12.7,-1.08
3400,-126.12,-50.13,320.5,-1.77,12.76,-0.42
3410,-160.5,-119.69,337.56,-0.95,13.24,-2.11
3420,-144.37,-175,371.5,0.55,11.25,-12.34
3430,-148.62,-201.56,420.44,1.22,9.08,-16.21
3440,-168.94,-191.69,482.06,2.03,5.41,-19.34
3450,-202.19,-162.12,546.75,3.43,-4.64,-22.11
3460,-228.69,-110.87,590,4.23,-8.62,-21.56
3470,-213.62,-24,599.62,4.03,-11.78,-20.43
3480,-174.62,94.06,579.81,3.51,-14.56,-18.53
3490,-152.31,216.31,546.31,2.21,-19.06,-9.66
3500,-168.31,309.44,504.19,1.28,-19.57,-3.39
3510,-182.62,359.37,462.69,-0.34,-19.76,1.33
3520,-182.19,373.25,456.94,7.27,-20.48,9.55
3530,-146.37,333.56,440.06,3.49,-20.92,8.86
3540,-133.75,231.62,312.25,3.98,-19.18,9.7
3550,-143,137.37,221.06,4.29,-16.01,10.47
3560,-127.62,32.63,164.06,1.27,-10.63,3.97
3570,-93.12,-45.19,148.37,0.77,-10.14,0.07
3580,-73.31,-65.37,145.37,0.19,-10.42,-2.9
3590,-87.25,-43.75,134.69,-1.02,-11.09,-4.17
3600,-120.81,-22.06,123.19,-1.34,-12.06,-3.44
3610,-141.5,-23.31,114.87,-1.12,-13.41,-2.74
3620,-118.5,-38.63,96.5,-0.64,-14.6,-2.83
3630,-55.13,-51.44,54.13,-0.75,-15.26,-6.62
3640,12.31,-42.25,-14.5,-1.69,-14.11,-9.19
3650,38.81,-3.69,-96.5,-3.39,-11.51,-10.6
3660,25.25,55.63,-159.87,-6.38,-5.43,-8
3670,-4.5,110.62,-189.81,-7.64,-3.61,-5.82
3680,-31.75,142.25,-197.12,-9.07,-2.06,-2.97
3690,-37.75,154.87,-190.31,-9.85,-1.14,1.93
3700,-31.25,137.69,-175.31,-10.8,-0.73,1.92
3710,16.44,114.12,-163,-11.47,-1.45,0.19
3720,32.94,93.94,-141.81,-10.42,-1.97,-0.16
3730,14.5,62.56,-126.75,-10.86,-2.45,0.17
3740,45.69,47.75,-132.25,-11.18,-2.19,-1.39
3750,81.94,43.88,-130.81,-11.34,-2.73,-3.71
3760,78.06,49,-131.62,-12.64,-0.41,-2.21
3770,95.44,64.69,-128.12,-12.67,-0.84,-3.3
3780,108.87,81.87,-107.06,-12.14,-2.93,-3.6
3790,66.62,84.5,-91.25,-11.09,-4.88,-2.14
3800,55.81,95.5,-102.5,-11.41,-5.18,1.79
3810,102.5,115.56,-126.75,-11.47,-4.48,2.6
3820,140.44,121.5,-149.62,-11.74,-3.15,3.2
3830,154.62,115,-163.44,-11.56,-0.7,3.35
3840,161.62,114.5,-160.81,-11.62,-0.9,2.01
3850,157.19,115.06,-147.25,-10.2,-1.35,2.65
3860,135.62,75.56,-128.62,-11.42,-1.75,3.45
3870,119.25,17.25,-107.62,-8.93,-4.09,3.69
3880,127.12,-20.06,-105.44,-8.06,-5.75,1.82
3890,150.94,-35.81,-123.31,-7.33,-6.75,-0.69
3900,140.81,-33.06,-166.56,-8.66,-1.62,0.01
3910,113.62,-20.19,-214.94,-9.61,2.4,2.38
3920,104.37,-33.06,-240.75,-10.99,5.56,3.31
3930,122.25,-62.19,-234.06,-11.24,10.02,2.59
3940,131.25,-105.94,-197.25,-11.09,11.15,2.32
3950,142.37,-149.87,-147.81,-9.71,10.72,0.91
3960,168.25,-192.87,-94.75,-9.04,9.74,-0.3
3970,188.94,-264,-49.81,-7.33,8.72,-3.55
3980,216.31,-314.56,-23.87,-6.61,7.02,-10.77
3990,260.37,-220.19,-16.87,-4.85,6.04,-16.65
4000,218,-117.94,-27.87,-4.95,10.44,-10.93
4010,124.81,-36,-39.25,-5.43,12.87,-4.82
4020,84.69,3.62,-38.56,-5.43,14.71,-0.7
4030,98.06,-11.94,-32.19,-6.17,17.03,1.22
4040,156.81,-68.06,10.5,-5.65,19.65,-3.5
4050,236.19,-103.12,93.19,-2.7,15.88,-12.49
4060,233.19,-86.25,155.12,-1.48,14.72,-16.42
4070,117.56,-29.75,176.25,-0.52,14.54,-8.46
4080,21,6.12,210,0.18,12.26,-5.5
4090,-42.88,-4.69,240.37,0.97,9.8,-4.05
4100,-85.37,-33.88,259.19,2.08,6.84,-3.81
4110,-85.37,-33.88,259.19,4.27,2.7,-3.4
4120,-133.25,-79.87,250.37,4.98,2.25,-3.46
4130,-127.56,-90.75,232.75,5.39,2.59,-4.15
4140,-110.19,-97.31,221.31,5.25,3.41,-8.56
4150,-92.31,-86.44,224.25,5.35,3.11,-10.24
4160,-98.5,-54.31,239.69,5.68,2.03,-10.27
4170,-98.5,-54.31,239.69,7.04,-3.34,-9.29
4180,-128.81,8.13,281.5,7.83,-6.07,-8.67
4190,-131.81,30.31,287.87,8.57,-8.34,-8.02
4200,-114.81,56.31,278.06,8.79,-9.87,-7.74
4210,-114.81,56.31,278.06,8.53,-10.9,-6.03
4220,-84.44,93.12,253.94,8.02,-10.75,-4.62
4230,-38.31,170.94,206.69,7.68,-10.91,-2.85
4240,-33.94,189.81,195,7.6,-12.99,0.22
4250,-33,191.06,181.94,7.97,-13.71,1.43
4260,-33,191.06,181.94,7.8,-14.88,0.01
4270,-17.06,179.81,159.94,7.58,-15.89,-0.62
4280,-7.62,161.25,93.81,6.3,-14.71,0.22
4290,15.75,156.81,50.88,6.09,-13.25,-0.95
4300,40.56,149.37,-7.81,3.58,-10.24,-2.04
4310,40.56,149.37,-7.81,1.25,-5.35,-3.88
4320,57.44,146.56,-50.44,0.38,-4.41,-4.8
4330,71.87,168.5,-52.19,-0.33,-4.34,-4.86
4340,48.56,182.62,-41.5,-0.81,-5.01,-4.09
4350,25.25,194.19,-37.13,-1.79,-6.65,-1.11
4360,25.25,194.19,-37.13,-2.55,-7,-0.02
4370,10.81,197.25,-43.06,-2.55,-7,-0.02
4380,6.81,169.5,-66.81,-3.64,-7.21,1.5
4390,27.06,146.06,-81.37,-4.11,-7.06,0.08
4400,47.63,128.12,-96.5,-4.65,-6.39,-1.09
4410,47.63,128.12,-96.5,-4.65,-6.39,-1.09
4420,54,119.94,-110.31,-6.23,-5.02,-1.97
4430,25.75,117.69,-119.94,-6.58,-4.91,-1.06
4440,16.5,117.44,-128.25,-7.11,-4.29,-0.36
4450,23.69,116.44,-136.56,-8.47,-1.87,0.47
4460,23.69,116.44,-136.56,-8.47,-1.87,0.47
4470,32.19,113,-135.31,-9.19,-1.36,0.69
4480,44.81,86.56,-98.19,-8.8,-2.44,0.66
4490,73.25,69.75,-90.06,-8.7,-3.57,-1.71
4500,92.25,61.44,-84.06,-8.15,-4.68,-2.45
4510,92.25,61.44,-84.06,-8.15,-4.68,-2.45
4520,71.75,63.31,-89.12,-8.96,-5.02,-2.04
4530,60.69,78.56,-131.81,-10.59,-2.29,-0.59
4540,65.5,106.56,-144.94,-10.56,-1.75,-0.77
4550,39.81,109.62,-131.56,-9.36,-1.92,3.61
4560,39.81,109.62,-131.56,-9.36,-1.92,3.61
4570,35.56,35.06,-114.87,-10.05,-2.01,3.85
4580,74.69,-72.81,-98.75,-10.35,-1.43,0.96
4590,125.06,-84.87,-82.31,-10.43,-0.71,-2.52
4600,154.62,-79.75,-59.88,-10.11,-0.93,-2.86
4610,154.62,-79.75,-59.88,-10.11,-0.93,-2.86
4620,178,-60.81,-35.81,-9.43,-1.55,-2.86
4630,194.5,-45.31,-24.12,-7.9,0.42,-3.5
4640,198.87,-48.38,-29.69,-7.53,2.01,-5.47
4650,198.37,-67.44,-46,-6.93,4.99,-6.65
4660,164.81,-97.25,-57.88,-6.93,4.99,-6.65
4670,88.94,-138.94,-64,-10.01,4.37,-7.55
4680,11.69,-153.69,-59.88,-8.95,5.07,-6.14
4690,-30.19,-110.5,-52.75,-6.57,0.87,1.57
4700,-84.37,-75.81,-25.25,-6.31,0.22,6.51
4710,-170.81,-76.19,-11.38,-6.31,0.22,6.51
4720,-114.5,-104.44,-9.19,-5.45,-0.28,4.66
4730,11.44,-149.31,-18.62,-5.03,5.86,-3.54
4740,70.44,-164.19,-27.69,-4.93,7.57,-4.22
4750,86.81,-169.31,-20.56,-4.02,7.97,-6.46
4760,108.44,-144.81,-3.25,-4.02,7.97,-6.46
4770,125.5,-103.19,10.5,-2.76,9.2,-6.8
4780,85.5,-73.12,24.12,0.03,8.57,-2.86
4790,55.44,-61.5,40.38,1.15,5.93,-3.6
4800,34,-78.19,54.56,2.9,5.03,-1.22
4810,22.12,-101,66.62,2.9,5.03,-1.22
4820,-8.81,-107.56,57.63,3.53,5.21,1.64
4830,26.5,-122.87,31,1.73,11.06,-4.52
4840,54.63,-131.81,-0.56,1.95,12.53,-4.09
4850,25.06,-124.12,-10.94,1.13,12.46,-4.02
4860,-3.37,-109.75,6.75,1.13,12.46,-4.02
4870,-32.19,-106.12,35.94,4.38,10.21,-2.55
4880,-66.12,-113.87,66.12,5.78,9.21,-2.19
4890,-82.5,-122.69,71.62,6.64,8.86,-4.63
4900,-81.87,-128.25,74.31,7.02,7.77,-6.76
4910,-74.12,-131.75,89.87,7.02,7.77,-6.76
4920,-70.06,-118.31,106,7.22,6.45,-8.35
4930,-82.44,-86.87,115.19,6.91,4.46,-5.58
4940,-101.12,-47,114.12,7.05,4.24,-3.3
4950,-129.69,-21.31,109.19,7.47,4.11,-2.14
4960,-161.81,-29,108.94,7.47,4.11,-2.14
4970,-166.81,-56.44,111.5,7.9,4.97,-5.7
4980,-152.5,-76.37,120.69,7.79,4.23,-9.38
4990,-149.75,-72.06,143.06,7.73,3.03,-9.11
5000,-166.31,-45.63,171.44,7.46,0.05,-5.49
5010,-196.12,-17.75,195.5,7.46,0.05,-5.49
5020,-220.25,-12.94,213.12,7.37,-1.61,-4.6
5030,-219.75,-31.31,223.25,3.61,-3.32,-9.31
5040,-190.81,-52.75,225.06,2.54,-4.15,-11.05
5050,-144.75,-54.38,226.94,2.89,-6.65,-13.04
5060,-89.62,-28.06,250.75,2.89,-6.65,-13.04
5070,-50.25,9.63,290.62,3.57,-10.53,-15.13
5080,-36.13,59.31,322.25,3.81,-22.61,-16.15
5090,-23.94,134.94,313.5,2.06,-22.76,-12.96
5100,-18,233.62,250.25,-0.18,-16.57,-1.72
5110,-23.19,329.75,152.62,-0.18,-16.57,-1.72
5120,-12.81,377.62,44.81,-4.14,-12.5,1.43
5130,-1.37,371.69,-44.38,-6.51,-7.48,5.39
5140,8.5,335.5,-70,-5.95,-9.26,3.97
5150,24.81,283.62,-58.81,-5.13,-11.27,2.91
5160,40.44,218.81,-40.38,-5.13,-11.27,2.91
5170,35.69,140.81,-38.56,-5.1,-12.56,2.38
5180,51.69,87.44,-56.44,-5.05,-12.39,0.24
5190,92.75,56.88,-89.19,-6.59,-11.33,-2.38
5200,131.94,67.12,-135.56,-7.44,-9.29,-4.13
5210,135.06,85.75,-166.06,-9.45,-5.39,-3.01
5220,134.06,106.25,-170.5,-9.76,-4.5,-2.53
5230,145.81,123,-162.19,-10.13,-3.92,-1.96
5240,153.62,126.56,-147.5,-10.2,-3.66,-1.29
5250,159.81,116,-131.56,-10.13,-2.25,-0.29
5260,179.25,91.56,-117.81,-10.39,-1.33,-1.23
5270,215.56,69.5,-102.81,-10.6,-0.46,-2.96
5280,245.75,62.81,-82.75,-10.89,1.24,-5.15
5290,259.25,76.56,-59.13,-11.34,2.08,-5.5
5300,261.12,103.62,-36.69,-11.92,3.12,-5.26
5310,249.81,132.94,-13.31,-12.49,4.29,-4.35
5320,231,159.31,17.62,-13.21,4.8,-1.84
5330,224.81,195.94,51.94,-13.56,4.08,-1.75
5340,224.62,236.87,82.12,-14.92,4.28,1.53
5350,202.12,180.69,134.25,-13.61,4.45,6.22
5360,176.37,105.87,175.81,-12.87,3.44,5.76
5370,198.69,41.88,210.81,-11.63,1.58,3.41
5380,197.5,-13.88,230.25,-10.46,-0.39,1.68
5390,150.81,-58.81,225.62,-7.68,-3.26,2
5400,104,-100,197.19,-5.96,-3.84,2.27
5410,68.44,-155,150.69,-6.65,-3.84,0.36
5420,43.75,-217.37,98.19,-4.62,-1.94,-0.37
5430,78,-269.62,49.25,-5.47,-1.1,-3.31
5440,107.69,-315.87,22.87,-4.31,0.53,-3.52
5450,110.44,-382.12,14.88,-3.73,2.56,-7.24
5460,135.62,-395.19,21.75,-2.85,0.96,-12.86
5470,186.81,-323.81,35.56,-0.3,-0.62,-17.66
5480,129.31,-265.12,38.25,0.94,-1.61,-18.81
5490,7.75,-198.31,15.44,2.84,-1.01,-12.62
5500,-67.37,-131.87,-33.13,2.72,1.82,-7.05
5510,-91.56,-111.75,-85.12,1.52,5.37,-3.43
5520,-51.44,-134.75,-109.5,0.53,9.6,-5.52
5530,1.44,-163.94,-98.31,0.3,10.21,-7.45
5540,13.69,-174.31,-63.56,0.69,10.1,-8.31
5550,7.12,-153.06,-24.94,0.91,9.69,-8.05
5560,0.31,-118.19,5.31,0.11,9.06,-5.85
5570,-5.81,-85.12,28.37,-0.26,9.26,-4.22
5580,-10.56,-61.13,46.94,-0.93,9.97,-2.99
5590,-13.06,-48.38,67.94,-0.91,10.44,-1.1
5600,-28.75,-46.31,101.81,-0.81,9.79,0.91
5610,-39.44,-59,150.19,0.33,6.76,0.68
5620,-45.88,-93.19,197.75,3.13,0.77,-1.9
5630,-76.37,-114.87,208.62,4.02,0.08,-1.66
5640,-82.94,-114.94,195.5,4.67,-0.22,-2.03
5650,-66.37,-111.81,178,5.2,0.13,-2.83
5660,-50.44,-105.06,156.69,4.93,2.78,-5.37
5670,-35.31,-88.44,139.81,3.85,5.62,-6.5
5680,-14.44,-50.81,135.56,2.81,8.16,-7.11
5690,-20.12,-10.56,158.87,1.8,8.73,-4.44
5700,-51.38,9.81,205.69,2.35,6.37,-3.41
5710,-72,7.44,255.25,3.12,3.91,-3.42
5720,-79.25,-8.19,282.75,3.5,1.88,-4.82
5730,-84.81,-20.06,295.19,4.26,-2.76,-7.19
5740,-96.12,-12.06,299.62,4.54,-4.66,-7.04
5750,-89.56,16.37,292.69,4.75,-6.39,-7.13
5760,-69.81,62.56,265.87,3.48,-6.02,-4.56
5770,-64.81,113.81,214.69,2.08,-2.99,-2.02
5780,-72.56,145.81,166.19,0.68,0.04,0.13
5790,-85.12,143.44,153.12,-0.08,1.39,0.97
5800,-105.75,115.19,175.56,0.55,-1.37,1.59
5810,-124,75.19,209.19,1.57,-4.03,0.13
5820,-111.31,45.38,225.37,2.09,-5.87,-1.8
5830,-79.25,44.5,215.94,2.12,-7.39,-4.8
5840,-60.56,66.5,191,2.02,-7.27,-4.4
5850,-52,96.31,163.06,1.98,-7.01,-3.6
5860,-32.38,122.62,136.5,1.49,-6.54,-3.22
5870,-14.5,139.12,109.62,0.69,-5.47,-3.21
5880,-14.88,149.44,83.62,-0.42,-3.92,-2.53
5890,-31.06,154.81,66.5,-1.4,-2.58,-1.51
5900,-49.81,150.87,61.94,-2.59,-1.18,0.96
5910,-64.94,131.31,65.75,-2.86,-1.3,1.16
5920,-59.94,102.06,72.87,-3.18,-1.72,0.31
5930,-37.44,81.12,74.69,-4.78,-2.03,-2.28
5940,-12.81,78.69,71.87,-5.92,-1.66,-3.07
5950,-1.12,92.31,67.19,-7.35,-1.16,-2.83
5960,-7.81,111.44,66.37,-8.35,-1.4,-1.98
5970,-31.25,121.5,72.37,-9.47,-4.94,0.72
5980,-55.88,121.56,74.19,-9.94,-6.17,1.62
5990,-63.81,120.44,56.63,-10.78,-6.37,2.58
6000,-67.06,126.25,21.94,-13.74,-3.31,5.47
6010,-57.5,145.87,-13.5,-15.15,-1.82,6.31
6020,-28.44,171.56,-30.37,-15.22,-1.15,8.36
6030,-23.87,105.37,-26.87,-16.06,-0.51,9.99
6040,-55.69,15.69,-8.94,-15.06,-3.43,10.71
6050,-47.44,-67,22.5,-13.55,-7.1,7.92
6060,-23.81,-129.06,35.56,-12.04,-9.47,6.21
6070,-18.19,-168.19,11.63,-10.35,-10.32,5.44
6080,-9.19,-194.12,-41.44,-10.33,-10.34,3.81
6090,10,-224.37,-93.5,-9.86,-9.42,1.89
6100,-0.94,-255.25,-141.5,-9.12,-6.2,2.19
6110,-10.13,-275.69,-170.37,-8.07,-5.72,1.37
6120,8.75,-326,-169.25,-6.29,-5.79,0.48
6130,52.5,-371.06,-149.87,-5.35,-8.35,-4.94
6140,126.81,-350.25,-129.5,0.4,-15.09,-15.48
6150,112.87,-318.87,-123.62,2.93,-18.49,-17.69
6160,63.25,-256.75,-156.5,5.09,-21,-17.37
6170,4.81,-181.94,-238.31,4.67,-18.58,-10.95
6180,-16.62,-126.56,-357,1.93,-12.59,-9.11
6190,18.5,-105.19,-462.56,-0.04,-6.84,-9.13
6200,73.94,-110.37,-503.31,-0.64,-2.83,-11.06
6210,112.44,-119.56,-487.75,-0.47,1.84,-15.09
6220,119.75,-95.69,-446.69,0.1,2.76,-13.64
6230,126.62,-37.38,-398.25,0.76,2.8,-10.81
6240,141.19,5.56,-352.81,1.5,1.97,-7
6250,171.12,16.37,-333.5,1.08,3.32,-7.01
6260,198.75,4.37,-346.87,0.52,5.78,-8.07
6270,214.19,-21.94,-365.75,0.21,8.69,-10.4
6280,222.37,-46.81,-368.75,-0.75,12.84,-18.63
6290,217.06,-51.69,-344,-1.04,12.98,-22.84
6300,186.37,-7.56,-303.06,-1.65,12.66,-25.01
6310,135.81,84.94,-267.12,-4.18,13.22,-20.93
6320,70.94,194.5,-240.94,-5.78,13.84,-15.61
6330,9.38,280,-217.81,-7.04,14.03,-10.62
6340,-25.19,321.12,-192.31,-8.59,14.25,-4.16
6350,-41,325.69,-165.06,-9.19,13.97,-2.48
6360,-58,307.5,-133.56,-9.58,13.3,-1.31
6370,-79.81,273.81,-95.37,-9.9,12.07,-0.59
6380,-96.56,232.37,-54.88,-9.74,9.03,-1.83
6390,-99.69,191.94,-30.12,-10.4,9.78,-2.93
6400,-108.62,174.44,-28.12,-11.53,10.97,-3.11
6410,-118.75,171.31,-20.69,-14.06,12.26,-3.99
6420,-131.12,178.37,-5.06,-15.3,12.02,-3.4
6430,-153.31,201.06,20.19,-15.57,11.11,-2.61
6440,-171.87,238.62,47.75,-15.93,9.77,-2.05
6450,-189.56,290.19,63.31,-19.35,7.34,2.41
6460,-214.62,321.44,75.19,-17.09,6.78,5.45
6470,-249.12,247.69,116.44,-17.87,5.89,7.91
6480,-270.37,173.19,149.56,-17.3,3.77,9.27
6490,-248.31,93.62,179.5,-16.87,2.64,7.3
6500,-217.87,12.44,205.62,-16.64,1.78,4.53
6510,-199.44,-54.94,230.19,-16.05,0.9,1.74
6520,-189.06,-118.12,279,-14.84,-2.29,-3.22
6530,-189.06,-118.12,279,-14.63,-3.32,-3.82
6540,-197.12,-129.56,292.62,-13.73,-3.8,-3.35
6550,-196.19,-141.69,297.87,-13.59,-4.92,-4.65
6560,-178.06,-130.5,287.5,-13.65,-4.96,-5.62
6570,-180.12,-87.56,258.94,-13.15,-5.09,-6.46
6580,-180.12,-87.56,258.94,-14.01,-5.19,-7.07
6590,-196.75,-50.81,245.31,-14.12,-5.46,-5.82
6600,-237.25,-24.44,238.31,-14.2,-5.47,-3.35
6610,-282.81,-13.69,240.62,-13.42,-6.53,-0.75
6620,-301.75,-50.25,246.25,-10.69,-9.96,3.05
6630,-301.75,-50.25,246.25,-9.49,-10.54,4.25
6640,-212.25,-144.62,198.75,-8.39,-11.22,4.08
6650,-212.25,-144.62,198.75,-8.21,-12.85,0.38
6660,-143.81,-241.19,160.81,-5.16,-13.47,-1.58
6670,-123.62,-266.69,145.62,-3.53,-14.4,-1.84
6680,-123.62,-266.69,145.62,-2.76,-16.25,-3.51
6690,-85.44,-288.56,133.25,-0.07,-20.79,-10.14
6700,-61.31,-276.37,101.19,1.24,-22.39,-11.29
6710,-79.44,-230.94,46.56,2.86,-22.88,-10.63
6720,-144.56,-139.75,-92.62,3.41,-21.79,-7.17
6730,-144.56,-139.75,-92.62,4.41,-21.22,-4.3
6740,-18.06,-128.37,-213.56,4.33,-20.51,-5
6750,37.38,-143,-263.56,4.2,-19.03,-7.42
6760,47.06,-150.25,-297,4.43,-15.28,-12.54
6770,37.75,-135.87,-322.31,4.93,-13.6,-14.62
6780,22.94,-101.69,-343.12,5.14,-11.62,-15.94
6790,12.19,-55.19,-356.62,5.04,-5.94,-17.24
6800,3.31,-0.62,-353.06,4.77,-3.49,-16.75
6810,3.56,61.13,-333.69,4.54,-1.65,-15.72
6820,1.12,116.62,-301.94,4.65,-0.56,-10.94
6830,3.25,156.19,-272.44,4.81,-2.02,-8.15
6840,13.19,178.44,-263.31,4.93,-3.81,-5.39
6850,39.63,190.44,-281.06,4.63,-4.88,-2.64
6860,67.25,189.5,-314.81,2.31,-4.35,-1.36
6870,30.62,171.62,-347.81,0.93,-2.25,-1.46
6880,17.25,156.44,-361.62,-0.54,-0.36,1.45
6890,95.62,146.37,-371.06,-2.41,-0.1,-0.78
6900,136.25,137.12,-391.37,-3.9,0.35,-5.31
6910,112.06,149.56,-410.94,-5.83,1.84,-5.88
6920,122.25,179.06,-428.19,-6.75,3.05,-5.82
6930,138.81,218.87,-456.19,-9.29,7.32,-7.33
6940,151.12,270.06,-483.75,-11.23,10.3,-6.44
6950,152.5,316.56,-519.06,-10.11,12.2,-6.27
6960,67.69,363.75,-546,-22.37,19.78,-4.25
6970,-16.94,400.25,-401.44,-17.27,22.04,1.9
6980,-29.62,373.75,-251.94,-16.94,21.38,4.85
6990,-46.63,227.44,-116,-12.65,18.95,8.54
7000,-11,93.87,-21.94,-9.93,14,7.27
7010,46.19,1.81,29.31,-8.81,10.81,-0.61
7020,46.19,1.81,29.31,-8.25,9.47,-6.81
7030,37.5,-29.5,43.44,-9.32,9.52,-8.98
7040,-16.31,33.56,67.81,-9.14,9.5,-8.09
7050,-11.31,69.44,84.5,-10.16,8.57,-6.28
7060,-37,87.5,97.06,-11.87,8.12,-7.01
7070,-37,87.5,97.06,-12.48,8.19,-3.08
7080,-80.69,99.56,122.62,-12.81,6.19,-2.72
7090,-103.69,53.13,182.25,-12.89,4.65,-2.88
7100,-118.25,31.94,199.19,-13.75,2.59,-2.26
7110,-127.69,15.88,211.81,-14.15,1.94,-1.69
7120,-127.69,15.88,211.81,-14.49,1.65,-0.9
7130,-126.94,-3.5,222.19,-14.77,-0.36,-2.75
7140,-140.25,-35.44,238.06,-14.62,-1.35,-3.4
7150,-159.69,-44.75,237.69,-14.38,-2.19,-3.21
7160,-166.5,-52.88,229.81,-14.19,-2.84,-2.75
7170,-166.5,-52.88,229.81,-13.81,-3.75,-2.43
7180,-166.37,-62.25,216.62,-13.7,-3.65,-2.21
7190,-170.25,-90.81,190.56,-13.52,-3.51,-2.01
7200,-172.19,-113.25,186.81,-12.77,-4.13,-2.89
7210,-168.69,-130.75,186.31,-12.4,-4.24,-3.62
7220,-168.69,-130.75,186.31,-12.16,-3.86,-3.33
7230,-161.06,-148.75,190.94,-11.44,-3.7,-3.43
7240,-143,-193.81,236.62,-10.09,-5.77,-6.51
7250,-118.75,-143.81,252.12,-9.13,-8.65,-9.37
7260,-141.12,-90,250.94,-6.98,-11.34,-9.83
7270,-141.12,-90,250.94,-4.67,-14.68,-4.42
7280,-174.62,-50.63,233.44,-5,-15.59,-2.59
7290,-154.31,-19,186.87,-4.12,-15.19,-1.14
7300,-142.5,-40,119.56,-1.26,-13.83,2.19
7310,-140.56,-100.56,61.75,-1.46,-12.85,1.95
7320,-140.56,-100.56,61.75,-1.46,-12.85,1.95
7330,-129.69,-139.12,40.94,-1.18,-12.16,1.18
7340,-116.31,-196.06,57.31,2.34,-17.86,-0.37
7350,-105.94,-223.5,52.44,4.03,-20.75,-2.5
7360,-108.25,-232.62,1.31,6.1,-23.62,-4.3
7370,-108.25,-232.62,1.31,6.1,-23.62,-4.3
7380,-106.06,-246.31,-86.87,7.41,-24,-5.19
7390,-78.81,-248,-291.31,4.16,-12.06,-10.46
7400,-76.69,-221.56,-293.37,3.68,-6.22,-11.36
7410,-66.06,-183.37,-240.62,4.44,-1.09,-12.68
7420,-66.06,-183.37,-240.62,4.44,-1.09,-12.68
7430,-42.38,-135.44,-166.37,5.64,-1.84,-12.72
7440,19.62,-24.5,-64.12,8.84,-7.36,-9.91
7450,46,16.19,-53.88,9.11,-8.02,-8.55
7460,46,16.19,-53.88,9.44,-8.42,-6.72
7470,57.69,43.44,-57.06,9.44,-8.42,-6.72
7480,46.69,53,-66.5,9.82,-9.09,-5.23
7490,25.19,46.69,-89.44,10.76,-11.52,-1.29
7500,22.75,28.87,-125.94,10.26,-11.25,-2.37
7510,44.81,14.31,-178.44,7.16,-4.24,-5.77
7520,74.94,13.44,-227.62,7.16,-4.24,-5.77
7530,118.19,32.31,-251.56,5.82,-0.28,-7.5
7540,162.94,69.87,-252.81,3.32,6.79,-10.77
7550,177.31,114.94,-230.75,1.26,10.08,-9.58
7560,170.06,161.94,-185.37,1.16,9.56,-7.61
7570,154.94,199.19,-133.19,1.16,9.56,-7.61
7580,142.19,215.12,-94.37,1.28,8.35,-5.04
7590,140.5,207.62,-73.87,1.74,3.18,-1.31
7600,145.31,185.44,-73.5,1.74,1.9,-1.87
7610,147.62,161.06,-92.31,0.85,2.51,-3.33
7620,146.12,138.75,-120.37,0.85,2.51,-3.33
7630,161.87,121.5,-155.31,-0.17,4.71,-4.74
7640,197.62,110.19,-189.56,-2.55,9.96,-9.75
7650,227.81,109.37,-219,-4.9,15.76,-16.75
7660,222.31,117.37,-240.25,-5.94,16.91,-16.23
7670,141.81,138.06,-263.37,-5.94,16.91,-16.23
7680,58,159.25,-204.44,-13.21,21.37,-13.33
7690,34.38,202.31,-85.19,-10.7,15.45,-9.5
7700,-50.88,235.81,-5.5,-10.91,13.21,-3.57
7710,-102.62,254,40.88,-10.91,11.56,-0.77
7720,-63.75,257.94,61.81,-10.91,11.56,-0.77
7730,-27.5,241.81,71.25,-11.57,11.26,0.27
7740,-16.31,215.62,88.31,-12.25,10.89,-0.82
7750,-21.94,177.69,119.37,-11.65,7.06,-2.71
7760,-39.69,134,153.44,-11.29,4.95,-3.99
7770,-53.69,115.19,172.94,-11.29,4.95,-3.99
7780,-68.81,120.94,176.25,-11.12,3.13,-5.34
7790,-100.44,138,169.12,-11.68,0.03,-3.35
7800,-120.62,145.94,167.81,-10.96,-1.92,-3.46
7810,-144.31,149.94,161.62,-10.94,-1.93,-1.04
7820,-164.06,162.81,138,-10.94,-1.93,-1.04
7830,-160.37,161.31,119.62,-10.82,-2.84,-0.08
7840,-164.31,164,91.69,-11.97,-1.53,0.78
7850,-185.75,158.44,63.94,-12.14,-0.04,4.47
7860,-203.87,105.37,49.38,-12.28,0.75,5.82
7870,-234.31,31.81,40.44,-12.28,0.75,5.82
7880,-231.94,-35.94,37.94,-12.65,1.16,5.18
7890,-215.75,-83.06,40.75,-13.33,2.57,-0.42
7900,-209.62,-104.69,51.63,-13.03,1.73,-1.33
7910,-201.87,-109.69,79.25,-12.11,-0.28,-1.56
7920,-201.81,-112.37,110.06,-12.11,-0.28,-1.56
7930,-207.62,-122.06,127.81,-9.92,-5.71,-0.98
7940,-212.69,-140.56,126.87,-8.56,-8.17,1.1
7950,-201.37,-159.31,106.44,-7.94,-8.28,1.64
7960,-164.87,-180.87,72.94,-8.68,-5.41,0.82
7970,-128.12,-210.44,41.13,-8.68,-5.41,0.82
7980,-88,-240.87,40.75,-8.99,-3.23,-0.25
7990,-68.44,-266.06,75.12,-3.86,-9.51,-7.51
8000,-87.19,-256,101.62,-2.08,-12.2,-6.91
8010,-138.44,-245.31,103.81,-2.08,-12.2,-6.91
8020,-167.5,-238.62,79.87,-0.16,-14.1,-5.43
8030,-153.75,-236.75,26.37,1.82,-14.68,-6.22
8040,-131.62,-235.19,-34.19,0.64,-12.83,-7.77
8050,-115.87,-217.81,-70.25,0.99,-9.68,-8.94
8060,-111,-187.62,-60.63,1,-7.4,-9.85
8070,-117.75,-149,-27.62,3.04,-8.78,-9.7
8080,-130.12,-113.31,1.19,5.17,-10.65,-8.61
8090,-149.62,-100.56,25.87,6.17,-12.77,-5.86
8100,-109.81,-103,34.81,7.96,-17.64,-2.61
8110,-25.5,-105.94,15.13,9.07,-19.49,-4.09
8120,28.25,-99.69,-45.13,9.63,-19.9,-5.09
8130,58,-81.56,-121.94,8.4,-18.08,-5.56
8140,79.19,-50.44,-167.69,5.89,-10.44,-4.93
8150,81.69,-30.31,-169.81,5.63,-7.95,-2.91
8160,74,-48.06,-142.94,5.78,-7.2,-1.47
8170,91.25,-86.06,-130.19,7.41,-10.95,-3.61
8180,134.94,-114.75,-158.44,7.65,-10.9,-8.34
8190,152.5,-123.69,-203.69,7.37,-8.92,-12.13
8200,161.12,-98.56,-243.25,6.19,-5.96,-15.42
8210,151.44,-42.81,-262.81,4.01,-0.18,-18.98
8220,120.25,25.31,-257.81,2.94,2.22,-18.52
8230,91.87,96.81,-237,2.11,3.59,-16.58
8240,86.62,158.69,-215.06,0.87,5.37,-9.72
8250,91,189.44,-192.69,0.56,5.21,-7.47
8260,82.69,194.69,-175.31,0.18,5.05,-4.54
8270,89.94,179.94,-164.62,0.06,4.82,-1.6
8280,114.87,153.94,-163.37,-0.18,4.69,-0.05
8290,129.87,120.25,-173.19,-0.52,5.63,-0.83
8300,142.37,96.75,-188.94,-1.37,7.5,-2.82
8310,145.81,101.12,-198.06,-3.05,11.45,-6.92
8320,123.44,121.62,-196.94,-3.8,13.53,-7.5
8330,91.31,143.31,-182.87,-4.31,15.41,-7.6
8340,60.38,169.56,-169.44,-7.63,17.58,-6.91
8350,19.44,199.37,-115.87,-9.02,18.99,-5.61
8360,-15.94,234.25,-28.81,-8.05,18.57,-4.29
8370,-36.06,247.06,39.25,-7.81,16.98,0.36
8380,-10.44,220.94,86.5,-6.49,11.98,2.04
8390,-1.87,185.56,108.31,-6.04,10.05,1.7
8400,-11.88,154.12,110.56,-5.73,8.5,1.45
8410,-22.56,131.12,100.31,-5.47,6.06,-0.15
8420,-39.19,121.56,82,-5.6,5.86,-0.41
8430,-52.44,115.5,64.62,-5.91,6.33,0.09
8440,-41.75,109.12,55.38,-6.52,6.91,0.16
8450,-24.37,102.56,55.06,-7.49,7.2,-1.28
8460,-21.94,101.31,59.88,-7.87,6.51,-2.23
8470,-40.19,111.37,60.56,-8.27,5.77,-2.42
8480,-69.37,122.31,57.69,-9.16,4.89,-0.05
8490,-94.25,126.31,55.69,-9.41,4.46,0.9
8500,-110.31,135.87,51.63,-9.48,3.74,0.63
8510,-133.06,141,42.75,-10.49,4.2,4.02
8520,-124.06,112.19,42.75,-11.03,3.81,2.86
8530,-132.44,51.75,54.06,-11.49,4.67,3.74
8540,-136,-6.5,82.56,-11.8,5.68,6.3
8550,-84,-61.06,129,-10.54,0.81,-0.24
8560,-67.69,-87.69,159.19,-9.84,-1.66,-3.38
8570,-94.19,-104.44,174.37,-9.23,-3.56,-3.5
8580,-116.19,-112.87,165.81,-7.75,-6.46,-2.33
8590,-117.12,-99.5,124.69,-7.79,-6.47,-2.16
8600,-112.75,-79.5,70.69,-8.08,-5.41,-2.49
8610,-124.75,-64.81,33.88,-8.78,-3.02,-2.09
8620,-142.62,-87.5,41.25,-9.24,-0.49,-1.12
8630,-132.44,-108.25,77.12,-8.22,-1.54,-2.13
8640,-129.62,-128.81,126.31,-7.35,-4.39,-3.12
8650,-145.37,-117.56,154.5,-4.61,-11.98,-4.61
8660,-174.75,-86.56,150.06,-4.84,-14.33,-2.95
8670,-202.56,-61.38,120.44,-1.28,-16.12,0.22
8680,-195,-79.87,3.56,0.18,-16.84,2.95
8690,-143.87,-135.56,-108.81,-4.56,-5.95,5.1
8700,-42.38,-177.69,-131.94,-5.64,-1.56,1.38
8710,-5.56,-194.75,-86.5,-4.83,-0.39,-2.93
8720,-64.25,-197.81,-18,-0.95,-5.56,-5.96
8730,-117.44,-183.75,28.62,1.41,-10.43,-5.2
8740,-125.19,-162.44,27,3.21,-13.04,-4.63
8750,-116,-156.44,2.31,4.56,-15.66,-2.4
8760,-70.5,-156.94,-39.5,4.79,-15.31,-2.29
8770,-19.5,-175.19,-74.56,3.92,-14.59,-4.01
8780,1.69,-192.87,-90.06,5.61,-13.02,-6.75
8790,3.75,-199.12,-87.44,7.46,-15.43,-10.81
8800,14.19,-179,-111.12,7.46,-15.9,-12.38
8810,24.56,-130.19,-149.87,7.19,-15.15,-12.16
8820,50.38,-70.37,-176.25,6.31,-13.19,-8.37
8830,81.31,-20.56,-193.25,5.73,-12.6,-5.42
8840,102.44,-3.06,-206.19,5.11,-12.81,-1.23
8850,149.31,-27.25,-233.56,5.42,-12.44,2.06
8860,217.25,-87.75,-274.94,4.49,-7.59,-4.28
8870,255.19,-131.37,-308.5,4.14,-5.03,-10.66
8880,234.31,-127.44,-325.94,4.25,-3.18,-15.74
8890,188,-73.5,-339.06,2.83,2.93,-18.52
8900,155.25,6.12,-333.19,1.96,5.18,-17.43
8910,131.31,83.81,-309.75,1.42,6.7,-15.15
8920,117.06,134.19,-283.56,1.27,7.92,-10.55
8930,142.5,146.94,-265.62,0.58,11.13,-7.31
8940,155,137.31,-241.75,-0.04,13.06,-9.37
8950,114.06,125.62,-203.62,-0.26,13.28,-11.61
8960,78,147.06,-178.62,-1.23,14.37,-9.83
8970,72.25,174.25,-157.94,-2.09,15,-9.64
8980,48.19,194.62,-129.5,-3.11,15.33,-10.33
8990,3.31,213.81,-87.12,-4.37,15.48,-7.49
9000,-0.13,220.5,-45.5,-3.79,11.71,-3.91
9010,-2.87,218.5,-28,-4.39,10.55,-2.96
9020,-10.19,214.75,-17.81,-5.1,9.94,-1.74
9030,-15.06,204.31,-5.62,-5.87,8.64,-0.02
9040,-25.81,184.69,5.62,-6.23,7.93,0.41
9050,-33.56,162.19,12.13,-6.77,7.39,-0.09
9060,-44.19,146.56,16.62,-7.38,6.88,0.3
9070,-47.25,133.87,23.31,-7.61,6.38,-0.21
9080,-53.31,123.94,32.06,-7.86,5.6,-0.57
9090,-69.12,117.31,35.31,-8.16,4.65,-0.73
9100,-86.31,113.87,26.31,-8.83,4.19,0.62
9110,-91.37,108.81,10.75,-9.71,5.27,1.28
9120,-78.56,105.19,2.19,-10.65,6.24,0.63
9130,-79.69,103.69,7.62,-13.03,7.27,-0.73
9140,-96.94,98.69,28.44,-12.19,7.71,0.71
9150,-92.19,92.19,59,-13.71,6.57,-0.66
9160,-116.75,75.69,87.81,-13.12,5.85,-1.27
9170,-134.44,69.31,111.37,-13.52,3.78,2.02
9180,-110.75,35,140.44,-12.59,1.77,1.68
9190,-96.56,5.81,152.12,-12.36,0.33,0.61
9200,-109.44,-13.56,151.25,-11.47,-2.27,-0.23
9210,-126.06,-23.62,139.19,-11.2,-2.81,0.28
9220,-134.94,-38.5,122.19,-10.93,-3.21,0.96
9230,-140.06,-67.25,105.44,-10.21,-3.66,0.52
9240,-137.87,-96.44,87.19,-10.16,-2.86,-0.04
9250,-118.25,-128.69,82.94,-9.94,-2.31,-1.12
9260,-87.25,-173.12,96.5,-9.14,-2.46,-1.87
9270,-60.44,-191.12,105.56,-8.44,-2.03,-5.01
9280,-7.56,-106.25,110.25,-7.86,-2.79,-7.92
9290,-17.19,-30.56,121.25,-7.05,-4,-7.56
9300,-93.62,4.87,127.75,-5.99,-5.73,1.59
9310,-127.62,4.44,128.12,-4.93,-6.61,4.29
9320,-110.37,-29.94,122.44,-3.89,-7.03,5.36
9330,-70.37,-111.62,122.69,-3.59,-7.31,4.34
9340,-14.31,-169.25,141.25,-2.34,-8.88,-1.67
9350,52,-136,151.44,-1.44,-11.04,-6.31
9360,29.12,-72.56,149.81,-0.7,-12.49,-6.1
9370,-30.44,-22.87,147.19,-0.52,-15.16,1.52
9380,-74.44,-11.31,150.87,2.94,-18.22,4.32
9390,-107.25,-57.63,107.56,4.29,-21.12,6.72
9400,-103.25,-143.56,27,5.67,-21.98,7.74
9410,-46.94,-208,-66.44,4.96,-15.4,0.07
9420,-9.5,-229.31,-126.56,4.31,-10.69,-4.41
9430,3.5,-205.62,-138.62,4.02,-6.21,-6.32
9440,11.88,-166.69,-96.69,5.78,-5.5,-10.34
9450,-8.25,-117.31,-41.56,7.39,-8.98,-9.08
9460,-7.75,-67.56,-28.94,8.4,-11.31,-6.11
9470,16.75,-41.44,-47.13,9.29,-13.03,-4.66
9480,32.75,-38.38,-83.31,8.69,-11.41,-1.56
9490,58.56,-51.31,-114.56,8.22,-9.67,-2.21
9500,72.37,-70.12,-126.5,7.86,-8.2,-4.12
9510,76.06,-75.75,-126.44,8.8,-9.05,-8.13
9520,88.62,-51.5,-145.37,8.22,-8.03,-10.25
9530,68.5,-17.5,-163.75,7.81,-6.54,-10.75
9540,41.88,19.37,-174.06,7.3,-4.13,-7.13
9550,53.5,51,-189.12,6.26,-2.35,-6.08
9560,74.5,64,-201,5.19,-0.07,-5.69
9570,89.5,64.75,-196.25,4.31,1.99,-5.46
9580,116.25,68.44,-179.87,3.19,4.74,-7.14
9590,136.75,78.25,-154.75,2.72,4.98,-7.8
9600,147.69,97.81,-124.56,2.45,3.48,-8.68
9610,139.06,128.06,-113.81,2.4,0.03,-5.25
9620,133.44,144.19,-129.19,1.91,-0.96,-2.86
9630,159.62,134.62,-172.87,0.66,0.68,-5.17
9640,166.56,125.5,-222.06,-0.81,4.2,-5.21
9650,180.06,117.87,-260.69,-3.89,10.07,-7.92
9660,187.62,122.56,-294.19,-6.43,13.67,-9.08
9670,168,132.12,-304.25,-5.17,15.35,-9.19
9680,109.37,142.5,-312.44,-13.49,20.81,-7.19
9690,56.44,177.5,-192.56,-11.74,20.24,-5.08
9700,46.06,198.12,-91.62,-11.2,17.8,-5.35
9710,-17.5,192.31,-22.06,-9.7,13.22,1.26
9720,-33.88,163.06,21.69,-9.2,11.24,2
9730,1.87,126.44,45.25,-8.89,9.31,-0.19
9740,-7.69,97.25,54.06,-9.08,8.2,-2.09
9750,-47.69,82.62,59.13,-9.35,6.84,-1.99
9760,-72.44,77.25,63.5,-9.69,6.29,-1.75
9770,-87.37,71.62,69.06,-9.98,5.98,-1.26
9780,-87.37,71.62,69.06,-10.59,5.61,-0.65
9790,-100.31,59.63,78.81,-10.6,5.17,-0.94
9800,-122.75,32.44,109.81,-11.56,4.24,-1.16
9810,-139.25,21.69,124.19,-10.82,4.14,0.72
9820,-125.81,0.81,138.56,-11.18,1.84,-1.14
9830,-125.81,0.81,138.56,-10.8,1.58,-0.82
9840,-140.94,-28.19,154.12,-10.71,1.5,0.28
9850,-110.19,-38.13,161.37,-10.2,-0.66,-2.7
9860,-112.75,-39.25,160.56,-10.11,-0.92,-3.12
9870,-152.62,-43.81,158.06,-9.97,-0.93,-1.93
9880,-152.62,-43.81,158.06,-9.83,-1.5,-1.47
9890,-169.31,-49,158.44,-8.74,-4,-1.22
9900,-191.19,-73.81,152.94,-8.27,-5.06,-1.23
9910,-196.94,-80.87,138.62,-7.76,-5.5,-0.19
9920,-172.94,-86.19,122.75,-7.06,-5.3,0.68
9930,-172.94,-86.19,122.75,-7,-4.82,0.11
9940,-129.12,-90.19,112.19,-6.83,-4.31,-0.28
9950,-73.44,-80.12,112.81,-6.39,-4.47,-0.12
9960,-75.44,-78,122.69,-5.73,-5.35,0.59
9970,-86.31,-83.19,131.06,-5.14,-6.37,1.56
9980,-86.31,-83.19,131.06,-4.44,-7.45,2.42
9990,-90.81,-99.62,134.75,-4.44,-7.45,2.42
10000,-23.56,-141.87,149.87,-1.41,-12.97,-0.21
