timestamp,gyrox,gyroy,gyroz,accx,accy,accz
10,-2.62,7.81,0.94,0.00,0.00,0.00
20,-3.25,6.44,3.19,0.00,0.00,0.00
30,-1.12,3.37,2.00,0.00,0.00,0.00
40,-0.44,2.75,-0.50,4.51,0.06,-18.86
50,0.81,3.81,-1.69,4.54,0.06,-19.07
60,-2.25,7.56,-2.25,4.70,0.07,-19.36
70,-5.94,7.31,-4.44,4.78,0.18,-19.54
80,-8.88,2.69,-8.06,4.42,-0.12,-19.41
90,-9.81,-2.31,-9.13,3.97,-0.45,-19.02
100,-8.31,-4.75,-6.31,3.61,-0.74,-18.75
110,-6.87,-1.94,-1.94,3.66,-0.63,-18.34
120,-4.62,0.62,1.00,3.78,-0.37,-18.14
130,0.00,-0.13,2.06,3.96,-0.34,-18.18
140,4.12,-2.50,3.12,4.16,-0.28,-18.19
150,6.69,-1.69,3.37,4.39,-0.05,-18.17
160,6.81,4.19,3.00,4.48,0.06,-18.16
170,6.62,11.13,1.62,4.57,0.13,-18.43
180,5.62,15.75,-0.44,4.57,0.07,-19.01
190,3.56,16.37,-2.56,4.38,-0.06,-19.22
200,1.06,12.94,-2.75,4.24,-0.29,-19.39
210,-0.62,7.37,-0.81,4.14,-0.30,-19.31
220,-1.06,2.19,1.12,4.39,-0.11,-19.10
230,-1.50,-1.37,2.31,4.57,0.00,-18.96
240,-0.81,-3.44,2.06,4.69,0.04,-18.80
250,0.62,-4.00,0.37,4.71,0.17,-18.55
260,3.69,-6.50,-1.94,4.64,-0.05,-18.60
270,6.87,-12.13,-3.75,4.56,-0.06,-18.52
280,11.38,-16.44,-7.00,4.23,0.06,-18.70
290,20.87,-27.56,-11.81,4.19,0.36,-19.27
300,40.38,-60.88,-20.81,4.38,0.31,-22.02
310,48.88,-107.06,-29.75,3.66,-0.31,-23.76
320,41.69,-172.00,-32.00,3.50,-0.29,-24.68
330,57.06,-285.12,-36.06,3.38,-0.78,-25.31
340,75.81,-415.37,-33.75,1.15,-2.45,-25.84
350,87.94,-531.44,-17.87,-0.40,-3.35,-26.02
360,75.50,-609.06,8.94,-2.51,-4.45,-25.87
370,39.94,-626.62,51.50,-4.13,-5.59,-24.86
380,-27.69,-588.94,95.00,-3.63,-3.05,-21.45
390,-75.25,-544.56,116.19,-2.97,-1.38,-18.53
400,-82.31,-516.44,112.00,-3.28,-0.10,-16.51
410,-67.75,-495.31,94.50,-3.74,0.89,-14.03
420,-51.31,-467.44,70.56,-5.36,2.27,-12.51
430,-45.25,-426.50,42.94,-6.50,2.52,-10.95
440,-31.75,-389.25,15.19,-7.43,2.21,-10.16
450,-19.62,-361.06,-8.94,-10.45,0.93,-9.28
460,-4.19,-343.00,-23.06,-11.67,0.35,-8.77
470,14.75,-337.94,-30.94,-13.07,0.04,-8.32
480,28.94,-336.87,-35.44,-14.16,-0.64,-7.64
490,31.69,-329.50,-34.88,-16.55,-0.99,-6.76
500,26.87,-313.94,-29.87,-17.23,-0.92,-5.52
510,26.50,-293.69,-24.12,-17.64,-0.98,-4.31
520,21.94,-259.19,-17.06,-17.73,-1.38,-3.27
530,17.75,-212.31,-9.25,-17.66,-0.48,-2.03
540,15.00,-160.37,-6.81,-17.51,0.00,-1.34
550,15.31,-110.56,-11.88,-17.45,0.39,-0.97
560,17.44,-70.44,-23.69,-17.83,0.35,-0.93
570,18.75,-35.94,-34.56,-19.27,-1.14,-0.76
580,-1.81,19.62,-38.81,-20.73,-2.51,-0.55
590,-53.63,116.19,-24.62,-21.58,-3.78,1.16
600,-93.62,235.94,10.00,-21.69,-3.80,1.92
610,-124.62,364.25,47.44,-19.42,-2.14,3.30
620,-130.00,488.75,78.56,-17.23,-1.12,3.25
630,-130.00,488.75,78.56,-14.94,-0.77,2.19
640,-76.12,711.25,117.81,-11.73,-0.60,-0.12
650,-47.06,815.75,134.69,-6.14,-0.28,-4.58
660,-50.56,929.81,155.25,-1.95,-0.18,-7.80
670,-70.69,1034.69,176.69,3.42,1.96,-10.48
680,-60.81,1089.38,169.75,9.50,4.13,-12.16
690,9.50,1057.25,132.25,18.35,5.48,-18.24
700,98.44,940.87,66.25,21.33,6.63,-21.98
710,166.25,786.75,-21.12,21.51,5.94,-24.32
720,200.25,638.56,-90.31,13.45,0.28,-26.69
730,200.25,638.56,-90.31,10.51,-1.86,-26.31
740,162.56,472.44,-91.25,9.35,-2.95,-25.63
750,96.94,453.31,-52.00,9.84,-3.14,-28.66
760,14.50,421.87,-39.44,14.09,2.13,-27.17
770,10.50,300.06,-57.88,13.83,1.28,-26.24
780,10.50,300.06,-57.88,11.98,0.19,-25.44
790,16.25,161.19,-72.31,10.93,-0.63,-23.31
800,-12.88,-24.44,-52.69,10.33,-1.25,-20.15
810,-28.44,-75.75,-34.56,10.45,-1.08,-18.81
820,-35.25,-107.56,-19.56,10.75,-0.50,-17.62
830,-37.81,-124.69,-11.13,10.74,-0.29,-16.43
840,-40.75,-127.19,-4.44,10.96,0.49,-14.53
850,-32.13,-130.44,-1.94,10.72,0.71,-13.89
860,-16.06,-134.50,-1.37,10.56,1.06,-14.05
870,-3.00,-139.12,-3.00,10.45,1.18,-14.75
880,-3.00,-139.12,-3.00,10.79,2.42,-17.03
890,10.81,-164.37,-8.06,10.59,2.61,-19.15
900,67.81,-325.94,-30.81,9.82,2.13,-21.88
910,66.81,-414.69,-38.44,8.75,1.27,-24.13
920,61.88,-512.62,-36.25,6.18,-0.89,-25.33
930,61.88,-512.62,-36.25,4.38,-1.54,-25.06
940,68.81,-607.19,-18.25,2.72,-2.06,-24.79
950,78.37,-728.37,44.00,1.45,-2.60,-24.66
960,62.69,-754.56,78.37,0.44,-2.65,-24.73
970,24.44,-751.12,110.37,-0.09,-1.65,-23.32
980,24.44,-751.12,110.37,-0.21,-1.23,-21.07
990,-13.13,-730.25,130.56,-0.64,-0.13,-19.17
1000,-38.31,-695.50,128.19,-2.72,1.64,-16.28
1010,-40.56,-679.12,109.56,-4.22,2.38,-14.24
1020,-54.50,-644.00,83.44,-5.71,3.42,-11.64
1030,-54.50,-644.00,83.44,-9.60,3.54,-6.91
1040,-66.87,-598.50,50.00,-11.93,2.67,-4.17
1050,-55.00,-497.44,3.12,-13.89,1.46,-1.38
1060,-35.88,-429.06,4.06,-15.14,0.91,0.75
1070,-14.19,-347.19,12.25,-14.77,1.82,2.33
1080,-14.19,-347.19,12.25,-14.85,3.29,2.73
1090,-4.44,-251.94,12.63,-15.32,3.86,3.13
1100,6.37,-83.44,-21.31,-16.57,3.38,3.09
1110,13.63,-11.44,-33.94,-16.76,0.42,2.71
1120,18.00,66.06,-36.63,-17.07,0.57,0.84
1130,18.00,66.06,-36.63,-17.07,0.57,0.84
1140,12.38,136.69,-33.44,-16.48,2.12,-2.67
1150,25.37,172.69,-50.56,-17.26,1.31,-5.63
1160,29.62,156.62,-59.50,-18.00,0.54,-6.44
1170,21.37,146.25,-61.31,-19.31,-0.43,-6.69
1180,21.37,146.25,-61.31,-19.31,-0.43,-6.69
1190,2.56,156.75,-49.44,-20.35,-1.10,-5.99
1200,-31.12,267.19,0.00,-19.74,-1.36,-2.09
1210,-66.62,393.69,28.62,-18.56,-1.21,-1.01
1220,-105.19,553.00,59.63,-16.65,-1.09,-0.59
1230,-105.19,553.00,59.63,-16.65,-1.09,-0.59
1240,-138.19,734.25,95.00,-11.33,-0.38,0.51
1250,-135.62,1034.19,167.25,0.42,1.77,-4.78
1260,-89.94,1094.75,174.31,12.02,5.97,-11.39
1270,-49.63,1116.63,143.75,18.84,7.01,-14.69
1280,-49.63,1116.63,143.75,18.84,7.01,-14.69
1290,5.50,1084.31,84.75,21.73,7.24,-15.48
1300,205.87,805.12,-43.38,18.05,2.61,-24.94
1310,210.37,702.00,-63.25,15.62,0.34,-25.15
1320,201.37,612.56,-51.25,14.39,-0.81,-25.95
1330,201.37,612.56,-51.25,14.39,-0.81,-25.95
1340,181.37,525.25,-28.44,14.58,-1.51,-26.10
1350,40.81,396.00,-45.50,17.84,4.24,-25.81
1360,28.06,272.50,-77.94,14.02,0.70,-24.60
1370,10.63,163.31,-62.19,11.12,-1.35,-23.81
1380,10.63,163.31,-62.19,11.12,-1.35,-23.81
1390,8.31,48.75,-29.75,10.97,-0.42,-21.31
1400,-14.25,-136.25,8.75,13.42,0.79,-18.87
1410,-18.75,-185.25,11.00,13.27,0.12,-16.95
1420,-21.75,-194.94,15.31,13.33,-0.03,-13.89
1430,-21.75,-194.94,15.31,13.33,-0.03,-13.89
1440,-19.19,-179.19,17.75,13.08,0.36,-13.77
1450,-14.88,-162.06,10.38,12.21,0.90,-16.38
1460,5.12,-228.31,3.00,11.37,1.19,-20.60
1470,5.12,-228.31,3.00,11.23,1.70,-23.42
1480,28.19,-333.62,-0.37,11.23,1.70,-23.42
1490,36.50,-457.56,-2.12,10.99,1.63,-25.00
1500,33.06,-584.00,2.00,9.54,-0.87,-25.03
1510,31.12,-703.75,18.94,8.36,-1.51,-23.71
1520,39.31,-796.75,45.63,7.00,-1.66,-22.33
1530,48.38,-847.37,74.44,7.00,-1.66,-22.33
1540,49.94,-852.25,97.37,5.48,-1.22,-20.91
1550,29.44,-811.06,111.25,0.98,1.15,-18.36
1560,-9.88,-739.00,114.31,-1.05,1.69,-16.82
1570,-32.19,-675.25,105.19,-3.48,2.66,-13.82
1580,-51.38,-612.12,94.75,-3.48,2.66,-13.82
1590,-62.69,-551.25,79.19,-5.08,3.67,-12.53
1600,-64.19,-502.37,52.50,-8.65,3.56,-9.45
1610,-54.69,-465.50,22.81,-11.53,1.67,-7.45
1620,-41.81,-430.69,2.44,-13.10,1.58,-6.60
1630,-24.25,-402.06,-5.75,-13.10,1.58,-6.60
1640,-8.63,-375.69,-7.81,-14.19,1.50,-5.63
1650,6.00,-348.00,-7.75,-16.12,2.50,-2.92
1660,20.00,-318.06,-9.75,-16.36,2.58,-2.19
1670,29.19,-274.62,-13.25,-16.94,2.93,-2.01
1680,23.25,-211.06,-18.94,-16.94,2.93,-2.01
1690,15.88,-149.50,-26.12,-17.50,2.53,-1.35
1700,13.44,-94.06,-26.62,-18.30,0.57,-2.20
1710,7.75,-42.56,-19.00,-17.68,1.09,-2.76
1720,5.62,-3.75,-11.88,-17.29,0.98,-3.41
1730,-3.56,30.19,-13.63,-17.29,0.98,-3.41
1740,-10.94,57.13,-17.81,-17.58,1.24,-3.01
1750,-16.00,86.56,-21.25,-18.54,0.95,-1.99
1760,-30.75,140.50,-20.62,-18.78,1.08,-1.77
1770,-54.25,223.00,-16.69,-18.60,0.11,-0.22
1780,-96.81,341.69,-3.69,-18.60,0.11,-0.22
1790,-123.56,471.00,21.19,-17.46,0.57,0.28
1800,-119.94,589.37,47.75,-13.16,0.58,-0.14
1810,-88.31,695.87,75.75,-6.26,-0.15,-3.72
1820,-58.63,808.44,103.12,-1.87,1.53,-5.82
1830,-73.81,947.37,127.19,-1.87,1.53,-5.82
1840,-88.75,1073.31,148.06,4.51,2.05,-7.85
1850,-52.06,1123.56,154.56,22.14,7.07,-16.79
1860,22.37,1091.81,117.62,24.64,7.04,-19.16
1870,95.56,999.81,52.75,23.14,7.04,-22.02
1880,188.31,842.06,-22.69,23.14,7.04,-22.02
1890,237.75,702.37,-71.87,14.66,-0.62,-26.90
1900,213.37,632.56,-67.94,13.85,-2.24,-26.54
1910,174.69,575.19,-40.44,14.21,-0.84,-27.61
1920,127.56,502.12,-15.25,16.94,4.13,-26.87
1930,53.94,417.37,-21.00,16.94,4.13,-26.87
1940,13.56,296.75,-49.25,13.01,0.22,-24.32
1950,5.62,173.25,-37.31,11.58,-0.02,-23.60
1960,-1.81,42.38,-15.69,12.50,1.14,-20.29
1970,-13.25,-74.87,2.37,13.39,0.56,-18.08
1980,-16.75,-176.50,10.06,13.39,0.56,-18.08
1990,-14.25,-230.25,12.19,13.69,0.19,-16.27
2000,-23.69,-219.75,12.31,13.22,0.98,-13.07
2010,-33.31,-179.25,9.13,12.77,1.38,-13.41
2020,-32.44,-144.37,3.87,12.17,1.41,-14.74
2030,-17.75,-137.75,-1.81,12.17,1.41,-14.74
2040,-8.81,-154.00,-4.44,11.72,1.30,-16.53
2050,-10.31,-190.31,-5.37,11.13,2.63,-20.34
2060,-7.75,-258.31,-9.63,10.51,2.24,-21.15
2070,17.56,-366.44,-20.44,8.79,0.21,-23.60
2080,43.13,-486.81,-23.50,8.79,0.21,-23.60
2090,62.88,-596.75,-10.63,7.12,-0.49,-24.18
2100,73.12,-670.69,15.63,4.58,-1.58,-24.70
2110,60.81,-700.31,48.63,4.91,-0.46,-23.85
2120,29.94,-712.50,77.44,4.05,0.06,-23.44
2130,20.37,-744.81,95.37,4.05,0.06,-23.44
2140,12.25,-767.62,103.56,2.44,0.42,-22.64
2150,-6.69,-762.31,106.87,-2.20,1.35,-16.95
2160,-29.19,-730.75,105.12,-3.67,1.90,-15.29
2170,-39.13,-694.87,99.44,-5.26,2.87,-13.07
2180,-49.06,-653.12,85.56,-5.26,2.87,-13.07
2190,-52.44,-610.94,66.37,-6.79,3.10,-10.72
2200,-46.19,-569.50,50.06,-10.63,4.02,-5.38
2210,-42.69,-521.81,33.06,-12.02,3.92,-3.12
2220,-37.69,-463.44,13.88,-13.31,3.53,-1.03
2230,-31.37,-395.19,-2.50,-13.31,3.53,-1.03
2240,-10.88,-329.25,-14.56,-14.95,3.15,0.85
2250,9.63,-267.56,-25.56,-16.59,2.82,2.00
2260,26.69,-209.87,-35.94,-17.13,2.16,2.07
2270,40.00,-148.62,-44.81,-18.07,0.83,1.20
2280,30.81,-69.50,-46.00,-18.07,0.83,1.20
2290,20.50,4.94,-40.88,-18.06,1.09,0.35
2300,13.44,62.63,-36.88,-18.06,1.45,-1.36
2310,11.75,103.56,-35.19,-18.21,1.13,-2.43
2320,13.19,134.25,-32.56,-18.21,1.13,-2.43
2330,7.81,168.25,-29.00,-18.71,0.56,-2.83
2340,-7.50,217.00,-20.00,-18.81,0.18,-2.71
2350,-38.06,296.19,-5.87,-18.75,-0.43,-2.74
2360,-69.00,393.81,14.81,-17.63,0.31,-1.75
2370,-93.06,498.75,35.19,-16.37,0.47,-1.86
2380,-108.50,617.12,56.81,-14.18,0.55,-1.47
2390,-101.75,736.87,84.56,-8.31,0.87,-2.24
2400,-83.87,849.87,113.06,-3.44,1.97,-4.80
2410,-63.94,946.00,126.69,1.89,3.65,-7.79
2420,-37.13,1004.75,118.00,8.09,4.67,-11.30
2430,7.12,1005.25,80.94,14.87,7.09,-16.94
2440,52.19,978.69,26.37,17.26,6.19,-19.52
2450,100.37,914.50,-21.50,18.00,4.82,-22.23
2460,137.06,816.44,-53.31,17.23,3.08,-24.18
2470,152.87,709.19,-62.69,12.95,0.25,-26.38
2480,136.81,624.81,-52.38,13.50,-0.36,-25.94
2490,107.75,562.31,-37.63,13.27,-0.29,-24.69
2500,90.06,473.81,-22.56,13.85,0.67,-25.38
2510,84.87,357.31,-23.62,13.07,1.47,-25.57
2520,49.75,256.81,-26.94,13.28,1.69,-25.44
2530,19.06,157.00,-30.81,12.62,0.81,-23.95
2540,4.75,57.38,-19.81,11.29,-0.41,-23.02
2550,-6.44,-35.81,0.62,11.84,0.23,-20.62
2560,-11.31,-120.69,12.94,13.05,1.35,-19.06
2570,-14.81,-177.19,11.00,13.67,1.89,-17.40
2580,-21.37,-193.75,4.69,13.65,1.72,-16.11
2590,-25.31,-189.37,-0.31,12.89,1.62,-14.88
2600,-17.31,-192.62,-5.06,12.53,1.59,-15.56
2610,-8.25,-207.44,-13.63,12.29,1.80,-16.68
2620,5.37,-253.50,-27.37,11.65,2.04,-18.11
2630,22.50,-339.50,-40.44,10.00,1.43,-21.57
2640,35.63,-441.81,-37.88,8.18,0.47,-23.77
2650,36.06,-542.62,-14.19,7.19,-0.33,-24.33
2660,46.19,-637.56,17.44,5.95,-0.99,-24.52
2670,59.13,-704.44,50.56,6.28,-0.56,-25.01
2680,61.56,-754.94,72.25,5.16,0.14,-25.09
2690,42.50,-776.94,86.44,4.52,0.64,-24.63
2700,-1.25,-759.44,90.56,3.30,1.32,-21.96
2710,-38.63,-728.31,83.75,1.18,1.38,-19.71
2720,-63.69,-692.81,73.94,-0.75,0.89,-17.62
2730,-75.25,-660.25,71.69,-3.66,0.66,-15.09
2740,-70.94,-632.62,70.81,-5.37,1.96,-11.38
2750,-54.56,-603.19,60.63,-6.96,3.04,-9.29
2760,-40.94,-559.12,44.31,-8.52,3.73,-7.16
2770,-32.31,-496.12,24.19,-9.44,4.08,-5.06
2780,-24.37,-425.44,1.69,-12.19,4.18,-2.69
2790,-12.19,-353.56,-15.81,-13.71,3.98,-1.35
2800,5.00,-283.12,-27.12,-15.06,3.53,-0.54
2810,19.87,-211.87,-33.25,-15.86,2.76,-0.22
2820,28.44,-140.62,-35.13,-17.03,2.27,-0.20
2830,28.69,-65.56,-38.75,-17.46,1.15,-0.93
2840,19.69,7.50,-36.31,-17.76,0.88,-1.39
2850,19.69,60.56,-28.62,-17.60,0.78,-2.36
2860,19.87,94.62,-23.25,-17.22,1.34,-5.01
2870,20.87,111.00,-22.06,-17.34,1.24,-5.91
2880,14.31,126.06,-20.19,-17.94,0.74,-6.57
2890,1.31,148.94,-9.63,-18.52,0.41,-6.49
2900,-5.19,181.31,5.25,-18.33,0.73,-5.33
2910,-33.88,257.94,19.06,-17.89,1.35,-4.19
2920,-62.75,361.50,31.19,-16.27,0.86,-3.64
2930,-89.69,481.69,43.94,-13.74,0.97,-2.97
2940,-104.69,604.50,62.13,-11.25,1.21,-3.32
2950,-104.12,724.31,81.94,-8.11,2.19,-3.87
2960,-103.37,862.62,97.44,-5.69,2.17,-4.35
2970,-116.06,1016.31,131.69,5.94,3.23,-7.23
2980,-98.81,1110.13,152.06,14.07,5.63,-9.45
2990,-9.44,1090.81,132.19,20.91,8.35,-12.91
3000,103.75,988.81,57.31,24.61,8.88,-16.40
3010,184.50,877.25,-22.62,20.65,4.41,-22.27
3020,200.94,807.25,-61.88,17.49,1.10,-24.67
3030,162.94,771.19,-46.81,16.45,-0.80,-25.35
3040,131.37,711.69,-15.56,17.74,-0.34,-24.90
3050,131.37,711.69,-15.56,18.45,1.39,-24.92
3060,82.00,524.69,-11.13,18.99,3.82,-25.64
3070,48.25,403.00,-39.75,18.16,3.16,-23.88
3080,40.13,260.75,-49.75,14.92,1.03,-23.68
3090,29.00,121.75,-33.19,12.81,0.13,-22.58
3100,29.00,121.75,-33.19,13.37,0.69,-21.49
3110,7.25,-3.25,-10.25,14.68,1.34,-19.64
3120,-12.69,-207.31,9.06,15.04,1.30,-17.69
3130,-13.63,-260.94,10.75,16.19,1.94,-14.12
3140,-17.81,-281.87,8.50,16.44,2.12,-13.63
3150,-17.81,-281.87,8.50,16.06,2.03,-13.18
3160,-13.69,-289.44,-10.94,15.19,2.39,-14.03
3170,11.31,-347.06,-23.81,12.93,1.53,-17.89
3180,35.94,-434.81,-25.62,12.00,0.31,-20.81
3190,42.81,-518.25,-11.00,10.46,-0.28,-23.51
3200,42.81,-518.25,-11.00,9.29,-0.75,-25.05
3210,30.87,-603.56,19.62,9.99,-0.46,-25.25
3220,55.19,-796.62,94.31,10.00,0.17,-25.63
3230,47.19,-843.81,114.31,10.21,0.64,-25.42
3240,15.06,-846.25,113.50,9.87,2.33,-22.53
3250,15.06,-846.25,113.50,6.93,2.37,-20.20
3260,-52.81,-754.50,84.44,4.24,2.56,-17.70
3270,-71.81,-685.06,66.12,1.31,2.70,-15.25
3280,-70.25,-623.87,49.50,-3.17,2.46,-11.59
3290,-52.50,-569.81,36.25,-5.04,3.13,-10.18
3300,-52.50,-569.81,36.25,-7.38,3.62,-9.32
3310,-27.75,-522.50,21.12,-9.16,3.40,-8.21
3320,-5.69,-407.69,-1.69,-11.69,3.06,-6.55
3330,2.81,-343.75,-6.00,-12.61,3.00,-5.59
3340,13.31,-281.25,-8.63,-12.57,2.68,-4.96
3350,13.31,-281.25,-8.63,-13.33,3.18,-4.85
3360,16.31,-152.62,-29.19,-14.50,2.87,-4.54
3370,10.56,-88.37,-42.06,-15.82,2.53,-4.40
3380,4.12,-24.94,-46.25,-17.20,1.83,-4.45
3390,-4.75,40.31,-38.75,-18.21,0.96,-4.45
3400,-4.75,40.31,-38.75,-17.68,0.10,-5.90
3410,-3.25,93.56,-24.44,-16.83,0.42,-7.89
3420,4.56,124.69,-9.63,-15.86,0.92,-9.55
3430,8.63,135.75,0.56,-15.13,1.41,-10.87
3440,16.94,106.00,1.06,-14.71,2.47,-11.69
3450,16.94,106.00,1.06,-14.69,2.90,-11.14
3460,-41.00,179.25,-16.94,-15.39,2.60,-9.54
3470,-41.00,179.25,-16.94,-15.98,2.01,-7.27
3480,-92.06,292.50,-17.50,-16.17,0.31,-3.30
3490,-116.50,557.75,25.19,-14.41,-0.91,-3.17
3500,-116.50,557.75,25.19,-11.17,-1.65,-4.43
3510,-111.19,697.06,68.81,-3.01,0.52,-6.22
3520,-108.37,823.50,112.06,5.06,2.66,-8.92
3530,-100.56,925.44,148.19,11.95,6.87,-11.37
3540,6.44,931.87,94.06,17.43,9.67,-13.57
3550,6.44,931.87,94.06,18.11,7.30,-18.21
3560,91.12,861.56,14.69,16.27,3.52,-19.63
3570,143.50,799.44,-45.31,14.98,0.44,-20.11
3580,134.12,801.62,-52.69,16.06,-0.64,-21.01
3590,97.75,784.31,3.37,19.54,2.09,-22.14
3600,97.75,784.31,3.37,19.58,2.62,-22.00
3610,112.94,681.81,-0.56,18.15,2.41,-24.80
3620,101.06,570.06,-14.13,18.77,2.79,-23.94
3630,47.00,468.19,-27.62,14.72,0.81,-23.20
3640,30.19,171.19,-12.25,14.14,1.00,-23.37
3650,30.19,171.19,-12.25,14.87,1.45,-22.40
3660,12.19,21.06,5.75,16.28,1.95,-20.40
3670,-4.06,-108.00,10.19,17.21,1.51,-14.96
3680,-15.38,-198.44,5.50,17.21,1.28,-13.01
3690,-27.31,-245.94,2.25,17.01,1.10,-11.74
3700,-27.31,-245.94,2.25,16.51,1.26,-11.72
3710,-28.44,-232.12,1.69,15.30,1.75,-14.34
3720,-15.19,-243.12,-2.31,14.37,1.76,-16.51
3730,6.69,-295.50,-5.81,13.91,1.89,-18.80
3740,16.00,-465.69,2.87,13.30,2.22,-20.90
3750,16.00,-465.69,2.87,13.51,0.41,-22.91
3760,34.31,-597.56,9.38,12.50,-0.99,-24.16
3770,50.75,-716.62,27.62,11.54,-1.22,-24.56
3780,49.69,-790.00,63.00,12.27,1.17,-24.52
3790,26.00,-831.19,101.87,11.04,2.04,-24.49
3800,26.00,-831.19,101.87,9.90,1.98,-23.79
3810,-1.62,-816.31,96.62,7.54,2.52,-22.13
3820,-35.75,-786.69,86.19,3.90,1.95,-17.90
3830,-61.69,-746.50,71.56,1.10,1.80,-15.27
3840,-64.44,-659.44,46.63,-1.38,2.21,-13.24
3850,-64.44,-659.44,46.63,-3.74,2.93,-11.15
3860,-51.63,-608.69,35.25,-6.82,4.10,-8.11
3870,-44.19,-543.31,20.19,-9.18,4.29,-6.37
3880,-31.25,-475.19,0.00,-11.64,3.72,-4.86
3890,-0.88,-321.44,-24.75,-13.34,2.63,-3.68
3900,-0.88,-321.44,-24.75,-15.47,1.48,-2.54
3910,12.81,-237.06,-18.69,-15.58,1.58,-2.27
3920,23.06,-148.37,-8.63,-15.30,1.81,-2.68
3930,28.25,-62.06,-3.81,-14.33,2.34,-3.48
3940,21.25,83.37,-19.12,-13.43,3.00,-5.82
3950,21.25,83.37,-19.12,-13.99,2.36,-7.15
3960,20.25,127.56,-35.63,-14.58,1.80,-8.30
3970,21.37,156.44,-43.63,-15.15,1.07,-9.76
3980,23.50,171.25,-42.00,-16.03,0.70,-11.34
3990,8.50,196.81,-23.25,-16.16,0.45,-11.56
4000,8.50,196.81,-23.25,-15.94,0.52,-11.07
4010,-13.00,234.94,-8.88,-15.53,0.58,-10.18
4020,-43.69,302.81,7.25,-13.30,0.88,-7.57
4030,-65.25,391.50,25.50,-10.61,1.20,-7.64
4040,-81.87,600.62,50.13,-8.28,1.63,-7.73
4050,-81.87,600.62,50.13,-2.41,2.66,-9.46
4060,-84.75,708.44,60.00,1.99,3.73,-10.16
4070,-81.87,805.44,66.56,7.40,4.54,-12.70
4080,-54.50,867.94,63.88,11.53,5.57,-14.61
4090,33.81,871.69,8.00,14.26,4.52,-17.30
4100,33.81,871.69,8.00,14.88,2.83,-19.22
4110,81.25,836.44,-15.00,14.89,1.11,-20.81
4120,106.56,794.37,-20.81,16.25,0.24,-20.95
4130,106.19,758.50,-12.06,17.49,1.17,-22.28
4140,112.94,618.56,5.81,18.03,1.90,-22.07
4150,112.94,618.56,5.81,18.02,1.43,-22.23
4160,128.25,501.87,-4.75,17.42,2.12,-24.39
4170,74.12,428.31,-19.37,15.93,1.01,-20.97
4180,33.38,346.44,-37.19,14.44,0.03,-20.33
4190,20.06,129.56,-20.56,14.11,0.08,-19.85
4200,20.06,129.56,-20.56,14.40,0.51,-19.50
4210,11.00,22.37,-3.69,15.76,1.27,-17.89
4220,-2.87,-69.00,2.69,16.15,1.14,-16.02
4230,-17.44,-139.19,5.12,16.20,1.03,-14.39
4240,-29.06,-211.31,7.12,16.47,1.08,-12.92
4250,-29.06,-211.31,7.12,16.26,1.58,-11.08
4260,-32.75,-211.00,4.25,15.41,1.64,-11.18
4270,-24.94,-211.06,-1.31,14.83,1.56,-11.78
4280,-12.63,-216.19,-5.62,14.17,1.76,-13.01
4290,37.69,-300.81,-16.75,12.97,1.69,-16.71
4300,37.69,-300.81,-16.75,12.21,1.05,-19.83
4310,56.00,-371.12,-12.81,11.42,0.55,-21.86
4320,46.13,-434.87,1.00,11.63,0.00,-24.03
4330,39.69,-519.62,21.44,11.43,0.25,-24.66
4340,37.25,-665.94,61.69,11.36,0.56,-24.83
4350,37.25,-665.94,61.69,11.36,1.28,-24.80
4360,21.69,-706.12,68.87,11.15,1.94,-23.01
4370,4.94,-736.75,60.69,9.13,1.90,-22.89
4380,2.25,-764.87,46.38,6.93,1.57,-22.54
4390,-40.38,-747.94,22.94,3.90,1.22,-21.25
4400,-40.38,-747.94,22.94,-0.54,0.31,-18.02
4410,-57.06,-729.56,20.81,-2.98,0.75,-15.89
4420,-55.88,-714.25,24.87,-4.82,1.15,-13.46
4430,-51.81,-683.06,28.75,-6.60,1.58,-10.77
4440,-47.25,-558.37,27.00,-9.00,1.60,-6.33
4450,-47.25,-558.37,27.00,-10.01,2.47,-4.42
4460,-32.13,-480.81,23.62,-11.37,2.73,-3.33
4470,-16.19,-399.44,14.44,-12.30,3.35,-2.88
4480,-5.94,-315.62,5.19,-13.98,3.15,-2.09
4490,-8.25,-147.69,-19.81,-14.74,2.96,-1.28
4500,-8.25,-147.69,-19.81,-15.51,2.29,-0.68
4510,-3.00,-68.94,-31.25,-16.33,1.71,-0.59
4520,11.25,-1.00,-37.63,-17.41,0.86,-2.59
4530,21.81,62.50,-37.50,-17.35,0.45,-4.18
4540,19.87,164.44,-25.81,-17.12,0.30,-5.84
4550,19.87,164.44,-25.81,-16.66,0.20,-6.82
4560,10.88,202.62,-17.06,-16.32,0.68,-7.69
4570,-0.62,240.62,-8.31,-15.94,0.75,-8.06
4580,-14.13,283.87,-0.25,-15.24,1.02,-7.74
4590,-38.56,405.81,20.31,-12.83,1.39,-6.94
4600,-38.56,405.81,20.31,-11.17,1.67,-7.08
4610,-43.44,486.87,29.12,-9.90,1.09,-6.99
4620,-49.81,585.06,35.50,-8.20,0.57,-7.12
4630,-54.94,702.75,52.94,-0.96,0.59,-8.15
4640,-76.12,972.06,100.94,6.19,1.62,-10.70
4650,-76.12,972.06,100.94,12.48,3.84,-12.03
4660,-69.87,1052.75,97.94,19.00,6.05,-14.29
4670,4.69,1030.06,69.25,21.00,6.47,-19.39
4680,97.81,930.00,1.19,18.93,3.21,-21.32
4690,134.31,808.25,-69.69,17.00,0.07,-22.84
4700,134.31,808.25,-69.69,16.22,-1.76,-23.65
4710,106.00,775.25,-40.94,18.12,0.43,-23.04
4720,79.25,719.44,-5.06,18.55,2.12,-22.15
4730,82.50,611.81,8.50,18.58,3.13,-23.92
4740,32.31,366.87,-21.50,18.83,3.54,-23.23
4750,32.31,366.87,-21.50,15.10,0.37,-21.56
4760,20.87,237.37,-32.75,14.88,0.26,-20.49
4770,9.00,110.31,-22.37,14.59,0.07,-19.86
4780,0.25,-15.13,-4.75,15.71,0.60,-17.92
4790,-16.81,-197.00,10.88,17.54,1.66,-13.78
4800,-16.81,-197.00,10.88,17.97,2.09,-11.13
4810,-28.75,-226.44,7.87,17.56,2.06,-9.35
4820,-34.31,-218.31,0.50,16.47,1.79,-7.41
4830,-31.56,-184.75,-5.12,15.69,1.60,-8.30
4840,-6.00,-117.25,-13.31,14.97,2.02,-9.97
4850,-6.00,-117.25,-13.31,13.97,1.77,-12.00
4860,16.31,-133.25,-21.19,12.94,1.53,-18.01
4870,39.69,-188.19,-20.12,12.45,1.21,-20.67
4880,46.75,-270.87,-15.44,12.00,0.37,-22.59
4890,32.38,-483.19,20.87,11.67,-0.34,-24.31
4900,32.38,-483.19,20.87,12.99,-0.33,-25.02
4910,27.69,-586.75,48.00,13.49,0.35,-25.79
4920,31.19,-686.94,70.69,13.91,0.94,-25.81
4930,35.38,-779.81,86.25,14.01,1.65,-25.81
4940,35.38,-779.81,86.25,12.62,2.27,-24.89
4950,-8.69,-837.50,79.87,10.25,1.78,-23.74
4960,-40.31,-832.87,64.56,7.18,0.70,-22.31
4970,-66.44,-822.25,52.94,3.82,0.19,-21.04
4980,-86.37,-807.62,56.31,-0.10,0.46,-16.47
4990,-91.12,-793.50,64.44,-2.47,1.35,-13.62
5000,-80.37,-769.25,71.25,-4.43,2.41,-10.75
5010,-78.37,-708.12,74.25,-5.59,3.62,-7.81
5020,-82.87,-623.44,64.81,-8.42,5.23,-4.09
5030,-74.44,-539.25,40.38,-10.18,5.41,-1.99
5040,-74.44,-539.25,40.38,-11.47,4.67,-0.78
5050,-35.13,-372.00,-9.88,-12.36,5.69,0.89
5060,-1.81,-297.37,-36.69,-15.77,3.78,1.31
5070,18.75,-211.37,-57.19,-16.77,2.29,1.84
5080,19.50,-104.19,-60.50,-17.37,1.28,1.57
5090,12.25,105.00,-44.81,-17.60,1.01,-0.92
5100,12.25,105.00,-44.81,-17.11,1.17,-2.69
5110,13.75,178.19,-34.56,-16.71,1.15,-4.65
5120,19.44,222.94,-26.25,-16.43,1.38,-6.58
5130,24.81,244.56,-20.12,-16.18,1.60,-10.00
5140,24.81,244.56,-20.12,-15.91,1.73,-11.43
5150,34.88,234.56,-7.06,-15.16,1.79,-12.07
5160,27.31,226.06,-1.94,-15.04,2.07,-12.04
5170,-2.12,246.62,-2.56,-14.61,2.47,-8.67
5180,-39.75,302.81,-1.00,-14.23,1.95,-6.77
5190,-39.75,302.81,-1.00,-13.31,1.25,-5.17
5200,-92.56,510.25,21.44,-11.93,0.55,-4.68
5210,-86.44,636.62,55.69,-4.16,1.08,-6.72
5220,-74.44,763.44,96.87,1.65,2.42,-9.01
5230,-62.69,873.31,124.12,8.77,4.27,-11.48
5240,-62.69,873.31,124.12,13.75,6.32,-13.90
5250,-45.31,945.94,124.56,18.31,6.95,-17.40
5260,57.00,913.37,39.31,18.43,5.78,-19.88
5270,118.56,840.50,-18.75,16.61,2.42,-22.27
5280,142.44,780.06,-56.00,15.31,0.41,-22.75
5290,142.44,780.06,-56.00,15.64,0.31,-23.96
5300,86.44,724.87,-26.06,16.65,1.65,-24.43
5310,86.06,633.31,-7.50,16.20,1.96,-24.83
5320,97.44,495.31,-4.31,15.25,1.12,-24.45
5330,84.50,365.12,-0.37,14.44,2.31,-23.53
5340,84.50,365.12,-0.37,14.44,2.31,-23.53
5350,47.44,260.69,7.56,14.86,2.74,-20.70
5360,2.75,17.00,-3.00,14.65,1.31,-19.18
5370,-5.62,-89.94,1.00,15.67,1.22,-14.69
5380,-13.69,-154.62,9.81,16.16,2.13,-13.33
5390,-13.69,-154.62,9.81,16.16,2.13,-13.33
5400,-20.56,-179.69,13.88,15.55,1.86,-11.43
5410,-22.69,-172.19,-1.94,14.59,1.96,-12.28
5420,-19.25,-159.75,-10.19,13.72,1.53,-13.13
5430,-4.12,-176.31,-16.50,13.05,1.61,-15.36
5440,-4.12,-176.31,-16.50,13.05,1.61,-15.36
5450,16.44,-215.94,-16.06,11.30,1.08,-21.12
5460,13.06,-319.87,0.50,11.15,0.89,-22.62
5470,25.94,-419.44,20.19,11.25,1.07,-24.08
5480,43.25,-529.81,42.75,12.84,1.37,-25.23
5490,43.25,-529.81,42.75,12.84,1.37,-25.23
5500,38.25,-691.44,70.00,13.11,1.70,-25.27
5510,23.50,-736.06,66.00,11.63,1.97,-24.58
5520,6.44,-763.06,52.94,8.26,1.85,-23.26
5530,-12.25,-779.06,38.13,6.10,1.37,-22.15
5540,-12.25,-779.06,38.13,6.10,1.37,-22.15
5550,-29.12,-788.37,31.94,3.55,1.14,-19.95
5560,-58.13,-751.94,28.12,-3.27,0.83,-11.90
5570,-61.06,-699.25,36.63,-5.45,2.65,-9.63
5580,-46.31,-636.06,41.19,-7.19,3.42,-7.97
5590,-46.31,-636.06,41.19,-7.19,3.42,-7.97
5600,-31.94,-466.56,19.62,-8.83,3.64,-6.41
5610,-28.81,-374.25,5.87,-12.62,2.99,-3.84
5620,-20.50,-290.19,-6.81,-13.46,2.66,-3.73
5630,-8.31,-215.25,-16.75,-15.03,2.39,-3.95
5640,-8.31,-215.25,-16.75,-15.03,2.39,-3.95
5650,2.56,-153.62,-21.56,-15.72,2.23,-4.14
5660,18.06,-44.94,-20.37,-16.41,1.83,-4.51
5670,16.06,12.69,-23.25,-17.01,1.32,-5.05
5680,6.75,72.56,-26.31,-17.21,0.68,-6.20
5690,6.75,72.56,-26.31,-17.21,0.68,-6.20
5700,6.31,119.62,-24.87,-17.13,0.31,-7.22
5710,11.19,179.19,-1.56,-15.07,1.53,-9.59
5720,10.19,200.44,12.19,-14.10,2.31,-9.51
5730,1.25,227.81,19.81,-13.46,2.71,-9.24
5740,1.25,227.81,19.81,-13.46,2.71,-9.24
5750,-13.31,273.87,18.50,-12.74,3.15,-8.47
5760,-72.06,465.44,4.75,-11.13,1.10,-6.43
5770,-76.06,574.37,18.75,-8.19,0.26,-7.22
5780,-76.06,691.81,49.56,-4.04,1.16,-8.37
5790,-76.06,691.81,49.56,-4.04,1.16,-8.37
5800,-69.25,799.37,82.37,6.13,4.23,-11.76
5810,-52.06,877.56,98.12,15.56,6.87,-15.78
5820,-20.00,911.12,87.00,17.42,6.82,-17.15
5830,27.81,894.25,49.44,15.41,1.37,-19.30
5840,86.37,840.94,-5.06,15.41,1.37,-19.30
5850,123.00,810.12,-41.69,15.85,-0.38,-19.54
5860,116.56,821.75,-40.19,19.39,0.49,-21.58
5870,103.75,817.44,-16.06,18.67,1.28,-22.79
5880,93.19,771.12,-0.13,17.68,1.33,-23.46
5890,110.75,661.25,-0.50,17.68,1.33,-23.46
5900,117.37,535.06,-0.31,17.81,2.78,-25.71
5910,70.31,419.56,-6.19,14.54,0.32,-22.56
5920,30.69,277.94,-23.37,14.42,0.05,-21.42
5930,23.69,120.37,-25.31,15.34,0.12,-19.50
5940,7.87,-15.88,-8.81,15.34,0.12,-19.50
5950,-9.00,-129.62,9.38,17.11,1.22,-15.26
5960,-17.19,-215.12,14.00,16.72,0.42,-13.07
5970,-28.56,-264.44,10.00,16.51,0.72,-13.08
5980,-34.19,-287.50,8.81,15.58,1.56,-14.58
5990,-31.75,-302.25,7.81,15.58,1.56,-14.58
6000,-19.69,-335.94,-0.88,14.43,1.29,-16.58
6010,-0.62,-390.87,-7.31,12.55,0.67,-20.13
6020,3.37,-448.50,-2.31,13.19,0.99,-22.12
6030,12.19,-521.56,15.88,13.17,1.06,-23.36
6040,27.75,-614.75,37.69,13.17,1.06,-23.36
6050,45.44,-695.62,56.94,13.17,1.50,-24.56
6060,43.75,-743.19,66.06,10.87,2.37,-23.36
6070,20.69,-760.19,62.63,8.64,1.98,-21.88
6080,-8.06,-769.06,49.31,5.88,1.74,-20.40
6090,-24.94,-777.19,35.38,5.88,1.74,-20.40
6100,-37.81,-767.00,25.00,2.46,0.98,-18.15
6110,-54.81,-731.81,20.69,-4.14,1.83,-10.98
6120,-62.25,-684.81,29.50,-6.35,2.49,-8.71
6130,-53.31,-626.87,31.31,-8.67,2.89,-6.72
6140,-44.56,-546.50,24.31,-8.67,2.89,-6.72
6150,-40.00,-446.12,13.06,-10.68,2.57,-4.47
6160,-35.44,-336.25,3.87,-12.88,2.11,-4.79
6170,-21.62,-234.75,-4.19,-12.82,2.72,-5.02
6180,-10.69,-143.00,-11.19,-14.85,1.62,-7.60
6190,6.75,-75.37,-20.19,-14.85,1.62,-7.60
6200,19.87,-21.00,-29.19,-15.35,1.05,-8.14
6210,15.38,30.87,-27.12,-15.41,0.94,-10.18
6220,18.81,63.13,-21.50,-14.88,1.30,-12.14
6230,25.19,78.62,-15.75,-14.38,1.40,-13.01
6240,29.25,83.00,-8.19,-14.38,1.40,-13.01
6250,30.87,79.19,-2.94,-13.93,1.34,-13.46
6260,30.25,72.62,0.75,-12.09,2.38,-12.10
6270,18.06,78.87,4.00,-11.82,2.23,-10.96
6280,-1.94,102.56,-0.31,-12.45,2.40,-10.01
6290,-23.56,150.75,-13.19,-12.45,2.40,-10.01
6300,-58.13,236.69,-25.31,-12.34,1.29,-7.29
6310,-76.31,336.56,-30.25,-11.14,-0.16,-7.14
6320,-86.25,452.94,-25.25,-8.65,-0.80,-7.90
6330,-85.31,573.00,-3.06,0.43,0.58,-10.54
6340,-72.81,689.06,35.31,0.43,0.58,-10.54
6350,-64.31,797.69,78.69,6.46,3.03,-12.54
6360,-41.63,864.19,102.06,15.69,5.58,-15.93
6370,-3.06,879.56,89.87,17.37,4.26,-18.19
6380,42.19,857.44,49.88,16.25,1.74,-20.57
6390,91.12,806.69,-2.81,16.25,1.74,-20.57
6400,121.00,767.19,-42.00,16.16,0.11,-20.77
6410,101.81,762.31,-44.38,17.87,1.48,-22.58
6420,82.44,742.37,-24.19,17.52,1.79,-22.70
6430,79.44,673.50,-8.94,17.16,2.34,-25.02
6440,88.50,560.56,-6.12,17.16,2.34,-25.02
6450,61.56,448.31,-10.81,17.47,2.88,-24.29
6460,14.56,328.50,-23.37,14.11,0.07,-21.72
6470,11.06,174.31,-30.69,14.17,-0.46,-20.34
6480,2.56,28.62,-19.12,17.14,0.51,-15.57
6490,-8.19,-100.06,0.56,17.14,0.51,-15.57
6500,-13.31,-193.69,11.56,17.43,0.86,-14.03
6510,-22.75,-234.12,11.69,16.65,0.90,-12.25
6520,-40.31,-233.06,6.75,15.45,1.48,-13.30
6530,-44.38,-224.87,1.50,14.61,2.26,-14.27
6540,-41.50,-219.12,-1.94,14.61,2.26,-14.27
6550,-38.19,-233.94,-4.87,13.39,2.19,-14.95
6560,-22.62,-293.31,-10.63,11.86,0.27,-19.40
6570,1.75,-373.94,-5.25,12.21,-0.21,-21.95
6580,18.87,-464.00,7.50,11.71,0.16,-23.97
6590,45.00,-553.69,30.56,11.71,0.16,-23.97
6600,52.94,-624.37,52.06,11.76,0.73,-24.86
6610,44.31,-676.62,68.06,11.93,2.51,-25.41
6620,22.56,-720.50,74.12,10.64,2.38,-24.07
6630,0.75,-756.81,67.50,8.11,2.18,-22.28
6640,-28.31,-771.75,54.13,8.11,2.18,-22.28
6650,-50.56,-771.06,41.50,3.43,0.51,-18.66
6660,-64.56,-757.31,35.13,0.19,0.80,-16.69
6670,-62.44,-739.06,38.06,-2.28,1.11,-15.02
6680,-53.31,-708.19,42.06,-4.65,1.26,-13.46
6690,-51.06,-662.19,41.38,-7.61,1.49,-10.64
6700,-52.19,-605.50,41.06,-9.41,1.92,-8.89
6710,-52.13,-541.37,40.69,-11.19,2.66,-7.05
6720,-48.13,-474.87,43.56,-11.69,2.84,-4.88
6730,-34.50,-408.56,46.25,-11.80,5.48,-1.91
6740,-12.63,-334.37,29.81,-12.50,5.62,-0.44
6750,-9.69,-233.44,5.81,-13.70,5.06,0.77
6760,-15.63,-116.06,-15.88,-14.67,4.49,1.54
6770,-10.75,-4.25,-32.00,-16.00,3.06,-0.03
6780,-2.06,100.06,-44.63,-15.87,2.26,-1.97
6790,6.25,190.06,-48.56,-15.09,1.92,-4.33
6800,9.25,262.44,-46.19,-14.29,1.78,-7.93
6810,11.81,306.69,-46.06,-14.33,1.34,-9.60
6820,9.81,338.44,-46.50,-14.22,1.19,-10.16
6830,-6.50,376.12,-39.00,-13.75,1.28,-10.55
6840,-13.88,411.50,-26.25,-12.54,1.01,-11.10
6850,-22.00,457.25,-9.94,-11.35,1.09,-11.14
6860,-36.38,519.12,9.69,-9.87,0.78,-11.40
6870,-49.44,595.25,31.75,-6.27,0.36,-12.01
6880,-50.88,666.06,57.06,0.73,2.32,-13.59
6890,-51.81,721.56,76.19,5.52,4.85,-14.74
6900,-50.88,755.31,77.19,8.99,7.00,-14.95
6910,-23.31,752.00,49.56,11.36,7.06,-15.98
6920,30.44,723.87,3.06,11.24,3.34,-17.25
6930,59.94,722.62,-32.25,11.92,1.57,-17.70
6940,67.19,749.44,-39.94,13.06,0.72,-18.87
6950,63.63,773.19,-22.44,15.62,1.20,-19.45
6960,65.56,752.69,-3.25,17.32,2.54,-21.40
6970,85.56,683.81,1.69,17.10,2.08,-21.80
6980,98.56,589.12,-4.06,16.40,1.52,-22.35
6990,98.31,486.25,-5.50,15.81,1.09,-22.25
7000,82.19,383.19,-1.69,15.59,1.76,-23.91
7010,43.50,283.62,-1.75,15.81,1.47,-22.53
7020,15.50,164.69,-7.25,14.93,-0.09,-21.49
7030,8.31,43.13,-6.25,14.96,-0.50,-20.20
7040,-7.56,-46.44,6.75,16.59,1.83,-16.17
7050,-18.06,-118.56,13.44,16.69,2.10,-14.46
7060,-25.06,-170.37,8.63,16.54,1.87,-12.93
7070,-33.31,-189.37,3.62,15.52,1.30,-11.13
7080,-35.13,-189.50,-1.19,15.00,1.40,-11.91
7090,-27.12,-185.87,-2.06,14.34,1.45,-13.01
7100,-13.31,-199.31,-3.94,13.48,1.29,-14.94
7110,3.81,-235.69,-2.00,12.90,1.52,-18.39
7120,10.44,-286.12,7.12,13.18,1.40,-19.65
7130,22.87,-365.06,18.12,13.17,1.46,-21.57
7140,43.25,-454.87,28.44,13.20,1.55,-23.22
7150,37.88,-525.44,36.38,13.67,1.80,-23.54
7160,25.75,-597.06,38.13,12.60,1.83,-23.70
7170,33.56,-676.75,35.38,11.46,1.42,-23.72
7180,36.50,-733.12,35.38,9.74,1.38,-23.30
7190,35.88,-769.81,37.31,7.54,0.94,-23.02
7200,27.87,-783.25,41.31,6.25,1.05,-22.04
7210,8.63,-777.75,43.94,4.04,1.26,-20.28
7220,-13.81,-759.00,39.38,1.03,1.33,-18.10
7230,-33.44,-723.31,35.00,-2.30,1.83,-13.12
7240,-44.75,-671.00,30.81,-4.74,2.16,-10.68
7250,-44.31,-606.87,22.19,-6.70,2.39,-8.50
7260,-36.44,-536.19,10.69,-8.91,2.40,-6.86
7270,-26.56,-456.87,-3.12,-12.70,1.95,-4.99
7280,-19.44,-368.62,-16.31,-13.68,0.80,-3.73
7290,-18.06,-275.87,-22.25,-14.14,1.46,-2.65
7300,-1.69,-193.94,-28.56,-15.53,0.79,-3.18
7310,2.81,-106.81,-30.81,-16.38,-0.23,-4.00
7320,3.50,-23.44,-20.56,-16.24,0.28,-5.60
7330,12.00,39.63,-7.69,-15.72,0.99,-7.46
7340,15.19,85.37,-0.81,-14.97,1.65,-10.72
7350,16.25,107.50,-1.31,-14.74,1.57,-11.61
7360,13.88,110.44,-5.19,-14.73,1.48,-12.03
7370,13.13,102.87,-8.25,-14.67,1.30,-12.06
7380,4.87,105.44,-11.81,-15.09,1.07,-9.77
7390,-18.56,140.12,-14.13,-14.55,0.72,-9.03
7400,-42.94,202.50,-11.94,-13.90,1.03,-7.92
7410,-68.00,284.37,-6.06,-12.93,0.76,-7.31
7420,-73.69,365.37,1.31,-11.06,0.19,-7.32
7430,-68.87,445.06,13.88,-9.57,-0.06,-7.42
7440,-49.13,518.31,33.94,-7.55,0.05,-9.30
7450,-33.31,597.56,54.50,-4.57,1.32,-9.60
7460,-51.56,714.00,73.37,4.75,2.73,-10.04
7470,-71.00,848.44,87.31,11.60,4.47,-11.03
7480,-85.44,968.75,87.62,17.35,6.06,-11.84
7490,-19.87,965.87,56.19,19.59,6.66,-14.97
7500,86.75,889.00,-4.00,17.05,2.05,-20.49
7510,127.31,841.69,-50.50,16.03,-0.23,-21.77
7520,119.56,817.19,-58.50,16.09,-1.56,-22.91
7530,96.31,785.44,-33.75,17.26,-1.05,-23.19
7540,83.31,720.06,-2.44,17.89,1.48,-24.42
7550,85.37,610.00,12.31,18.19,2.54,-26.76
7560,64.50,484.44,9.69,18.46,3.07,-25.68
7570,15.94,352.00,-9.88,17.27,1.84,-24.26
7580,7.44,190.56,-24.94,14.56,0.01,-22.05
7590,-0.31,37.50,-18.81,14.56,-0.53,-20.02
7600,-8.31,-101.75,-2.06,15.80,-0.13,-17.65
7610,-8.06,-213.00,11.44,17.11,0.39,-13.71
7620,-13.00,-273.44,16.50,17.50,0.51,-12.70
7630,-28.00,-281.75,19.31,17.32,0.98,-12.00
7640,-36.69,-268.62,16.00,16.62,1.42,-12.45
7650,-30.62,-261.00,7.56,14.05,1.45,-15.29
7660,-21.37,-278.00,-4.44,12.69,0.45,-17.47
7670,-1.94,-340.81,-9.31,11.45,-0.09,-20.11
7680,23.00,-429.75,4.87,11.18,-0.45,-22.31
7690,35.88,-523.37,34.69,12.94,0.31,-24.00
7700,54.75,-624.75,59.56,13.14,0.83,-24.39
7710,62.88,-703.56,75.44,13.12,1.27,-24.36
7720,52.63,-750.31,80.50,12.45,2.01,-24.02
7730,39.06,-774.56,74.81,11.01,3.15,-22.79
7740,17.12,-775.06,57.13,8.35,2.74,-21.37
7750,-6.56,-763.06,31.37,5.23,1.91,-19.71
7760,-26.44,-738.44,10.00,1.27,1.31,-17.65
7770,-43.50,-695.62,2.06,-3.25,0.01,-13.83
7780,-49.44,-644.94,1.56,-5.50,-0.02,-11.95
7790,-39.13,-597.31,4.87,-7.61,0.02,-10.52
7800,-31.19,-540.37,9.38,-8.56,0.00,-9.16
7810,-27.87,-476.31,13.50,-11.08,1.55,-7.69
7820,-15.56,-419.50,9.81,-12.63,0.56,-7.02
7830,-9.25,-360.81,6.62,-12.73,1.89,-5.12
7840,5.19,-306.44,-0.13,-13.24,1.48,-5.17
7850,15.06,-246.31,-10.75,-15.90,1.13,-4.83
7860,9.94,-177.00,-15.19,-16.60,0.80,-4.48
7870,2.94,-106.19,-14.00,-16.97,0.47,-4.19
7880,-1.69,-37.81,-10.06,-16.74,0.20,-4.91
7890,-3.37,27.50,-3.12,-15.91,0.76,-5.86
7900,-3.69,82.06,3.00,-15.17,1.17,-6.81
7910,-0.75,119.12,3.69,-14.63,1.60,-7.41
7920,-3.81,154.69,-0.37,-14.33,2.04,-6.82
7930,-17.94,205.94,-9.56,-14.50,1.63,-6.70
7940,-33.13,273.69,-19.94,-14.19,1.15,-6.72
7950,-51.56,359.81,-24.12,-13.81,0.51,-6.65
7960,-68.19,460.50,-19.06,-12.67,-1.37,-6.32
7970,-73.94,566.69,1.06,-10.28,-2.44,-6.62
7980,-65.44,673.44,45.00,-5.33,-1.71,-8.69
7990,-54.06,773.69,93.62,-0.31,0.76,-10.02
8000,-69.06,880.69,121.00,13.07,6.27,-12.11
8010,-85.00,966.37,114.44,16.95,8.42,-12.57
8020,-37.56,973.06,59.19,18.99,7.04,-15.59
8030,61.69,916.81,-17.06,18.96,4.22,-17.63
8040,114.50,882.31,-70.37,15.59,-1.55,-21.05
8050,115.62,875.75,-74.19,16.36,-2.58,-22.13
8060,94.81,870.37,-38.56,18.33,-1.28,-22.78
8070,72.19,836.19,6.50,20.52,1.21,-23.58
8080,67.31,736.62,25.12,20.52,5.10,-26.45
8090,41.06,581.81,-6.19,17.95,3.05,-27.05
8100,41.00,388.44,-42.38,15.43,0.62,-26.47
8110,22.19,206.75,-45.00,14.16,-0.53,-25.35
8120,4.94,31.31,-23.87,15.11,-0.81,-21.62
8130,-8.38,-126.44,0.50,16.29,-0.29,-18.96
8140,-16.75,-248.87,16.37,17.85,-0.21,-16.52
8150,-23.50,-324.06,21.50,18.12,0.31,-12.65
8160,-36.19,-344.31,21.31,17.35,0.83,-11.92
8170,-50.75,-326.25,17.56,16.41,1.34,-11.78
8180,-53.06,-304.69,11.88,15.58,2.03,-12.45
8190,-43.44,-297.87,5.00,13.39,1.89,-14.20
8200,-31.06,-311.94,-1.06,12.37,1.49,-15.60
8210,-9.13,-348.37,-0.31,11.58,1.04,-16.99
8220,9.63,-386.19,7.50,11.10,0.83,-18.05
8230,11.38,-401.87,19.19,10.80,1.55,-19.13
8240,6.37,-412.00,28.75,10.23,1.89,-19.59
8250,15.56,-442.56,32.38,9.63,2.36,-20.77
8260,25.06,-478.00,34.19,8.78,2.55,-21.19
8270,26.69,-514.94,32.38,6.16,0.55,-21.64
8280,28.94,-544.75,41.25,6.38,1.21,-21.61
8290,28.69,-569.94,48.31,4.68,2.11,-22.28
8300,36.63,-600.94,42.13,3.40,2.56,-22.65
8310,22.31,-611.50,31.81,0.93,1.91,-20.62
8320,3.94,-608.31,20.69,-0.84,1.79,-19.24
8330,-6.19,-600.06,11.81,-3.15,1.63,-17.54
8340,-17.56,-575.81,6.44,-4.80,1.11,-15.40
8350,-30.37,-533.44,3.87,-7.25,1.27,-12.39
8360,-32.50,-489.69,-3.94,-8.63,0.80,-11.41
8370,-21.37,-454.69,-10.88,-10.35,1.05,-10.05
8380,-14.38,-413.94,-11.94,-11.42,1.12,-9.01
8390,-6.00,-370.37,-10.13,-13.24,0.86,-8.27
8400,-5.25,-320.50,-8.25,-13.87,1.65,-6.86
8410,-1.44,-274.19,-8.19,-14.90,1.28,-6.20
8420,7.44,-228.19,-12.13,-15.66,0.73,-5.68
8430,5.31,-169.81,-11.00,-16.49,0.38,-4.59
8440,3.87,-109.69,-6.00,-16.48,0.24,-4.08
8450,-1.50,-41.06,2.50,-15.81,1.00,-3.90
8460,-0.13,25.50,8.38,-14.39,1.89,-5.55
8470,6.19,83.25,4.19,-13.95,2.20,-6.54
8480,3.62,138.31,-6.00,-14.06,1.85,-7.26
8490,-13.56,200.56,-21.31,-14.34,1.69,-7.44
8500,-38.25,272.00,-34.13,-14.65,0.76,-7.23
8510,-53.63,344.12,-35.06,-13.96,0.41,-7.25
8520,-69.69,430.31,-24.19,-13.65,-0.60,-6.10
8530,-62.44,511.50,1.62,-11.39,-1.89,-7.68
8540,-44.75,593.19,34.31,-5.16,-0.08,-8.99
8550,-51.44,689.75,63.50,-1.24,1.52,-10.41
8560,-50.38,774.81,79.25,4.54,3.23,-12.43
8570,-51.88,848.87,80.81,10.55,5.82,-14.00
8580,-39.19,887.31,46.81,13.75,6.32,-17.00
8590,17.00,863.56,-14.25,14.09,3.68,-19.38
8600,72.81,821.44,-60.63,13.69,1.20,-20.79
8610,86.87,803.81,-75.12,13.58,-0.42,-22.10
8620,78.81,789.94,-58.06,14.70,-0.45,-24.09
8630,56.56,756.25,-24.56,15.49,0.95,-24.59
8640,56.31,666.87,-4.62,15.45,1.70,-26.20
8650,57.13,536.50,-2.37,15.98,2.66,-27.98
8660,22.12,394.81,-15.44,13.23,0.32,-27.24
8670,17.31,227.06,-25.12,13.16,-0.48,-26.23
8680,9.19,66.62,-13.50,12.82,-0.68,-25.03
8690,-3.81,-75.25,3.94,14.04,-0.06,-22.67
8700,-16.44,-187.37,15.44,15.35,0.19,-17.47
8710,-24.94,-261.81,14.69,14.22,-0.43,-15.94
8720,-38.81,-287.56,14.69,13.86,-0.09,-14.56
8730,-52.81,-283.50,21.50,13.86,1.71,-13.85
8740,-43.94,-286.56,21.06,12.87,2.13,-14.86
8750,-23.50,-299.00,15.25,12.01,1.98,-16.20
8760,-11.19,-309.37,11.63,10.27,1.03,-17.46
8770,0.31,-332.25,14.19,8.97,0.21,-19.84
8780,24.62,-374.87,27.25,8.82,0.34,-21.27
8790,44.00,-419.56,42.00,8.17,0.45,-22.24
8800,46.19,-454.19,53.69,7.18,0.52,-22.89
8810,24.00,-466.37,67.00,7.63,1.99,-22.15
8820,5.00,-485.25,75.87,7.18,2.38,-21.81
8830,-3.12,-504.06,73.44,6.50,2.82,-20.89
8840,-9.63,-516.69,60.44,5.06,2.79,-20.02
8850,-9.44,-520.50,41.56,1.58,2.30,-18.53
8860,-5.44,-514.00,25.87,-0.19,1.92,-17.85
8870,-7.25,-491.06,16.31,-1.91,1.85,-17.13
8880,-5.19,-467.56,6.75,-3.16,1.49,-17.04
8890,-1.50,-453.00,-2.44,-5.00,1.56,-15.85
8900,-7.19,-435.56,-10.50,-6.24,1.75,-14.21
8910,-10.50,-412.62,-17.69,-7.72,1.60,-12.84
8920,-5.75,-384.25,-23.75,-8.75,1.15,-11.71
8930,-5.00,-342.44,-27.75,-11.56,0.86,-9.81
8940,-3.69,-292.06,-29.44,-12.52,0.51,-8.93
8950,-0.81,-238.56,-27.06,-13.52,0.17,-8.25
8960,4.62,-183.69,-21.50,-14.27,0.00,-7.69
8970,9.06,-124.62,-13.00,-14.78,-0.33,-7.24
8980,9.69,-58.63,-4.44,-14.40,0.00,-7.59
8990,6.62,13.31,2.81,-13.76,0.54,-8.45
9000,3.19,75.37,4.81,-12.73,1.13,-10.47
9010,2.50,121.12,3.44,-12.28,1.34,-11.25
9020,1.56,155.19,-1.00,-12.36,1.19,-11.74
9030,-2.62,187.50,-7.19,-12.00,0.89,-11.80
9040,-4.69,221.69,-8.00,-11.02,0.70,-11.84
9050,-14.75,272.69,-8.19,-10.02,0.57,-11.91
9060,-29.87,336.31,-7.75,-9.16,0.57,-12.18
9070,-35.94,393.19,-5.19,-7.87,0.17,-12.74
9080,-35.94,442.69,1.37,-4.92,0.58,-13.25
9090,-36.25,495.62,6.69,-2.20,1.09,-14.05
9100,-36.25,548.25,10.63,0.42,2.40,-14.93
9110,-41.25,609.12,2.19,3.46,3.28,-15.33
9120,-47.25,675.94,-15.56,8.20,3.71,-16.02
9130,-44.50,731.94,-35.88,9.46,3.06,-15.99
9140,-25.19,763.50,-46.88,11.89,1.90,-17.09
9150,12.06,757.69,-47.31,13.08,1.70,-18.10
9160,53.25,716.37,-48.13,13.00,0.58,-21.52
9170,84.87,660.75,-42.06,13.75,0.47,-22.81
9180,90.69,599.56,-28.56,13.79,0.47,-24.00
9190,74.37,528.00,-15.81,14.64,1.03,-26.00
9200,17.00,454.00,-14.88,15.39,0.66,-24.10
9210,6.75,343.75,-26.94,13.64,0.00,-23.54
9220,-0.31,234.44,-33.69,13.00,-0.31,-22.25
9230,-7.62,123.87,-22.37,12.68,-0.14,-21.19
9240,-10.25,9.56,-7.62,13.57,0.23,-17.67
9250,-4.87,-95.06,3.87,14.10,0.42,-15.59
9260,0.62,-165.94,11.38,14.44,0.68,-13.99
9270,-1.50,-190.44,17.00,15.50,1.97,-10.99
9280,-6.44,-176.69,18.62,15.24,2.08,-10.49
9290,-6.19,-140.31,11.75,14.84,1.77,-10.26
9300,-0.94,-98.56,2.06,14.16,1.34,-10.86
9310,4.50,-55.63,-7.44,12.21,0.06,-13.36
9320,6.69,-23.87,-11.13,11.83,-0.12,-14.94
9330,15.94,-25.37,-7.69,11.49,0.08,-16.82
9340,34.38,-69.69,-3.87,11.06,-0.14,-18.97
9350,58.88,-148.94,1.69,10.17,-0.73,-23.63
9360,76.31,-238.69,18.37,10.09,-0.51,-24.62
9370,77.12,-340.75,41.19,10.87,-0.22,-25.68
9380,82.44,-452.19,63.00,11.17,-0.10,-26.07
9390,76.31,-541.81,77.62,12.45,0.33,-24.98
9400,61.50,-600.87,82.50,11.58,0.34,-24.53
9410,52.13,-644.75,76.00,10.02,0.09,-24.68
9420,42.25,-673.50,67.75,8.28,-0.40,-24.27
9430,33.69,-703.06,63.81,6.04,-0.46,-22.90
9440,27.62,-732.12,66.31,4.61,-0.44,-21.59
9450,27.62,-732.12,66.31,2.90,0.00,-19.46
9460,-8.19,-722.94,69.37,0.94,0.50,-16.75
9470,-31.37,-672.37,60.19,-2.11,0.95,-12.45
9480,-51.38,-599.06,42.63,-4.47,2.26,-9.33
9490,-47.44,-530.37,15.81,-6.49,1.69,-7.93
9500,-33.63,-454.94,-13.13,-8.61,1.14,-6.33
9510,-38.00,-355.62,-35.94,-12.26,-0.69,-3.22
9520,-48.19,-239.31,-48.19,-13.67,-1.35,-1.68
9530,-48.56,-117.87,-48.81,-14.61,-2.40,-1.16
9540,-34.81,0.44,-38.94,-14.68,-2.04,-3.65
9550,-34.81,0.44,-38.94,-13.78,-1.04,-6.48
9560,0.13,199.50,-7.50,-12.64,-0.51,-8.92
9570,4.12,268.25,0.62,-11.41,-0.34,-11.35
9580,7.87,309.25,1.69,-10.38,-0.23,-13.56
9590,-2.25,344.56,-1.62,-9.85,-0.71,-14.19
9600,-2.25,344.56,-1.62,-9.24,-1.18,-14.51
9610,-14.88,379.00,-2.31,-8.30,-1.64,-14.65
9620,-38.88,453.69,16.56,-4.68,-0.77,-13.58
9630,-55.44,509.06,32.75,-1.30,0.38,-13.80
9640,-68.87,582.37,35.88,2.60,1.91,-13.84
9650,-68.87,582.37,35.88,7.01,3.39,-14.38
9660,-82.50,666.37,22.69,10.04,4.31,-15.73
9670,-40.69,741.94,-45.00,11.22,2.75,-17.69
9680,18.81,715.81,-71.56,11.22,1.35,-19.59
9690,56.75,680.25,-84.00,10.66,-0.39,-22.68
9700,56.75,680.25,-84.00,10.66,-0.39,-22.68
9710,38.88,661.25,-75.75,12.49,-0.29,-25.42
9720,16.31,542.37,-42.44,12.91,0.57,-25.92
9730,14.44,434.06,-35.44,12.58,0.94,-26.07
9740,15.25,295.37,-37.19,10.40,-1.28,-25.83
9750,15.25,295.37,-37.19,10.57,-2.01,-24.80
9760,15.31,151.06,-29.62,10.97,-1.77,-23.18
9770,-1.19,-84.56,10.94,11.74,-1.08,-21.48
9780,-6.50,-164.12,26.44,13.51,0.58,-17.53
9790,-14.56,-206.94,33.94,13.93,1.09,-15.80
9800,-14.56,-206.94,33.94,13.89,1.59,-13.75
9810,-25.75,-215.37,33.69,13.16,1.91,-10.73
9820,-35.94,-145.31,12.56,11.65,1.29,-10.65
9830,-19.81,-99.19,-1.00,10.85,0.91,-11.05
9840,-7.44,-46.50,-4.31,10.55,0.68,-12.10
9850,-7.44,-46.50,-4.31,10.65,1.19,-16.06
9860,3.94,0.94,-2.44,10.77,1.13,-17.97
9870,13.63,36.56,-1.50,10.74,1.18,-19.49
9880,15.38,10.69,-5.56,10.09,0.25,-20.87
9890,29.31,-56.94,-11.50,7.61,-1.12,-24.08
9900,29.31,-56.94,-11.50,7.45,-1.26,-25.26
9910,47.31,-154.31,-2.06,8.12,-0.73,-26.62
9920,80.62,-407.44,50.75,8.52,-0.58,-26.69
9930,98.50,-540.94,71.37,9.59,-0.50,-26.24
9940,86.62,-623.81,88.31,9.38,-0.29,-24.91
9950,86.62,-623.81,88.31,9.38,-0.29,-24.91
9960,44.56,-647.56,100.62,9.17,0.28,-22.62
9970,-11.19,-618.69,79.37,4.70,0.93,-17.08
9980,-21.69,-569.62,52.13,1.82,0.70,-15.46
9990,-26.12,-514.00,26.19,-0.44,0.36,-14.16
10000,-26.12,-514.00,26.19,-0.44,0.36,-14.16
10010,-26.12,-451.00,10.94,-1.96,0.35,-12.87
10020,-16.69,-309.50,-15.81,-7.18,0.08,-10.26
10030,-17.50,-222.69,-25.25,-9.04,-1.30,-9.51
10040,-16.75,-128.75,-21.75,-10.23,-2.03,-9.27
10050,-16.75,-128.75,-21.75,-10.23,-2.03,-9.27
10060,-13.38,-33.25,-6.75,-9.71,-1.37,-10.98
10070,-7.69,115.56,17.25,-7.59,-0.31,-13.90
10080,-6.75,155.06,16.44,-7.15,-0.09,-14.49
10090,-21.87,205.06,12.75,-6.17,0.19,-13.56
10100,-21.87,205.06,12.75,-6.17,0.19,-13.56
10110,-46.25,276.00,12.94,-4.97,0.43,-13.26
10120,-80.06,434.06,18.37,1.89,3.04,-12.71
10130,-83.69,512.19,6.37,4.79,3.84,-13.06
10140,-74.87,579.56,-18.44,6.36,3.93,-14.47
10150,-74.87,579.56,-18.44,6.36,3.93,-14.47
10160,-49.81,623.94,-47.50,7.28,2.99,-16.74
10170,-40.94,654.06,-64.31,8.33,0.79,-21.74
10180,-23.75,648.87,-75.06,8.29,0.16,-24.03
10190,8.44,603.75,-78.06,8.53,0.13,-26.30
10200,27.06,532.37,-67.75,8.53,0.13,-26.30
10210,29.50,429.94,-51.31,8.13,0.64,-29.72
10220,30.94,293.50,-35.81,8.22,0.52,-30.32
10230,23.44,139.37,-22.06,8.68,0.17,-29.08
10240,13.75,-20.62,-7.94,10.20,0.94,-24.09
10250,-0.25,-162.31,7.75,10.20,0.94,-24.09
10260,-9.44,-274.81,19.50,10.22,1.26,-21.81
10270,-3.50,-365.25,25.25,9.62,1.25,-18.21
10280,-5.06,-407.81,31.25,8.45,1.91,-15.13
10290,-12.69,-402.94,34.56,7.47,2.03,-14.32
10300,-19.12,-356.94,33.31,7.47,2.03,-14.32
10310,-24.19,-285.50,26.25,6.46,2.31,-13.74
10320,-27.06,-205.56,16.56,4.75,2.55,-13.39
10330,-25.00,-127.81,4.31,4.46,2.62,-13.71
10340,-22.81,-48.75,-8.06,4.13,2.29,-14.86
10350,-16.56,19.69,-18.19,4.13,2.29,-14.86
10360,-7.56,74.37,-25.75,3.73,1.74,-16.38
10370,-2.81,111.44,-28.44,3.20,0.80,-21.06
10380,4.25,119.00,-26.00,3.43,0.94,-22.13
10390,8.81,98.94,-18.75,4.51,1.55,-22.45
10400,8.81,59.81,-10.50,4.51,1.55,-22.45
10410,4.31,13.88,-4.87,4.73,1.76,-21.78
10420,-3.19,-24.00,-6.00,4.12,1.17,-19.40
10430,-9.19,-47.56,-8.88,3.27,0.83,-18.06
10440,-9.88,-57.50,-9.56,3.33,0.94,-17.79
10450,-3.19,-62.13,-8.00,3.33,0.94,-17.79
10460,0.88,-57.19,-2.37,3.38,1.25,-17.66
10470,5.00,-45.81,1.19,2.92,1.54,-19.98
10480,12.56,-34.50,1.12,2.51,1.48,-20.51
10490,18.12,-35.25,1.31,2.33,1.30,-21.24
10500,27.87,-64.44,5.19,2.33,1.30,-21.24
10510,37.75,-102.87,13.06,6.19,2.57,-12.85
10520,14.50,-26.31,16.69,1.33,0.36,-21.45
10530,12.56,30.87,-5.44,2.86,2.00,-19.50
10540,25.94,-5.94,-7.44,2.34,1.62,-20.07
10550,3.06,-7.81,-5.44,2.34,1.62,-20.07
10560,4.69,-30.31,-8.94,2.06,1.52,-19.86
10570,12.06,-58.94,-9.00,-0.32,-0.72,-20.97
10580,34.44,-102.62,-7.75,-0.66,-0.75,-22.90
10590,57.38,-155.37,3.94,0.96,0.69,-19.96
10600,63.50,-210.50,21.69,0.96,0.69,-19.96
10610,60.13,-265.12,35.31,2.03,2.11,-11.20
10620,47.56,-227.50,35.56,-1.29,0.01,-16.00
10630,58.94,-165.50,25.62,-1.72,0.11,-18.76
10640,47.88,-107.50,25.62,-1.44,0.34,-20.73
10650,36.00,-62.13,26.50,-1.44,0.34,-20.73
10660,23.75,-47.00,22.00,-1.77,0.00,-19.91
10670,9.75,-38.63,16.62,-3.12,-1.15,-20.17
10680,5.94,-30.50,13.00,-3.60,-1.55,-18.99
10690,8.69,-35.00,14.13,-2.31,-0.29,-18.82
10700,13.25,-39.13,24.75,-2.31,-0.29,-18.82
10710,2.69,-23.69,31.00,-2.51,-0.42,-18.84
10720,-5.00,-12.88,26.56,-3.48,-1.20,-18.50
10730,1.56,-15.44,29.37,-3.30,-0.99,-18.91
10740,12.81,-18.31,38.69,-3.39,-0.72,-20.99
10750,29.50,-41.13,45.94,-3.39,-0.72,-20.99
10760,40.75,-75.31,48.25,-4.20,-0.98,-20.42
10770,24.69,-89.81,52.25,-4.71,-0.69,-19.56
10780,2.00,-92.75,59.31,-4.01,0.77,-19.61
10790,-6.75,-102.81,65.12,-4.28,-0.84,-20.24
10800,-7.56,-124.62,58.94,-4.28,-0.84,-20.24
10810,-15.69,-149.25,51.25,-1.55,-0.84,-20.11
10820,-19.12,-166.19,69.06,-3.89,1.55,-17.72
10830,-46.25,-127.44,53.38,-1.66,-1.29,-19.39
10840,-62.06,-62.25,47.81,-5.36,1.73,-19.17
10850,-68.12,1.50,22.69,-5.36,1.73,-19.17
10860,-67.25,52.38,22.37,-7.17,0.53,-18.70
10870,-50.06,57.75,38.38,-6.82,0.93,-19.41
10880,-24.06,39.75,41.31,-8.61,1.89,-18.06
10890,-9.25,9.81,30.75,-6.90,1.27,-18.20
10900,3.75,-52.88,41.69,-6.90,1.27,-18.20
10910,31.44,-117.06,57.63,-4.95,1.46,-17.70
10920,24.81,-127.06,61.50,-6.71,2.30,-16.35
10930,10.19,-109.87,59.63,-7.42,2.58,-17.75
10940,-4.44,-57.88,49.63,-7.15,1.34,-17.71
10950,-15.06,2.31,36.06,-7.15,1.34,-17.71
10960,4.62,33.00,31.37,-6.10,0.90,-18.05
10970,18.81,26.50,35.38,-3.78,1.33,-16.86
10980,12.19,25.62,36.56,-3.74,0.77,-17.74
10990,13.31,31.31,30.06,-4.62,0.27,-17.53
11000,7.12,38.56,25.06,-4.62,0.27,-17.53
11010,9.94,29.87,39.69,-5.77,1.39,-17.44
11020,17.81,13.75,48.38,-7.85,1.75,-18.42
11030,11.88,17.50,38.13,-7.85,1.75,-18.42
11040,4.44,23.19,34.31,-7.18,2.02,-18.36
11050,-5.56,28.25,40.44,-7.34,1.11,-18.20
11060,-8.31,20.44,47.69,-6.55,0.73,-18.37
11070,11.31,-15.69,57.50,-6.53,1.17,-18.37
