timestamp,gyrox,gyroy,gyroz,accx,accy,accz
10,-70.87,270.62,28.87,0.00,0.00,0.00
20,-86.87,386.00,47.69,0.00,0.00,0.00
30,-96.06,520.50,76.75,0.00,0.00,0.00
40,-96.56,657.06,120.50,1.71,-1.22,-8.21
50,-83.69,763.56,165.75,5.89,-0.72,-8.34
60,-64.06,843.44,200.62,10.90,-0.29,-8.95
70,-41.06,893.94,218.25,20.57,2.79,-10.98
80,-0.13,897.06,198.62,25.23,4.02,-11.23
90,54.38,867.81,144.94,27.40,3.76,-10.88
100,115.62,826.12,89.37,28.09,4.61,-10.31
110,186.25,748.56,22.69,28.21,3.19,-13.29
120,221.75,665.37,-31.06,25.16,1.27,-13.99
130,192.81,617.37,-44.81,22.81,-0.52,-15.36
140,109.69,602.25,-44.00,22.92,0.28,-15.62
150,67.50,540.69,-43.94,20.48,0.21,-15.18
160,47.81,433.44,-42.00,19.22,0.67,-14.62
170,36.75,301.62,-40.06,17.81,0.60,-14.05
180,14.44,179.56,-34.69,16.37,0.16,-11.28
190,8.06,59.50,-27.31,15.60,0.15,-10.20
200,7.75,-52.44,-16.56,15.07,0.41,-9.19
210,9.88,-158.00,-4.44,15.71,0.55,-8.42
220,14.38,-245.31,6.81,17.63,1.22,-5.99
230,22.44,-312.69,10.50,18.39,1.91,-5.40
240,38.06,-375.44,3.25,18.44,1.75,-5.77
250,53.63,-428.94,-3.37,18.86,1.17,-7.04
260,65.31,-479.81,-9.00,18.56,0.12,-10.42
270,66.50,-523.19,-8.88,18.52,0.15,-13.43
280,47.75,-564.75,-8.63,18.17,-0.10,-15.32
290,30.94,-605.19,-2.69,17.85,-0.46,-16.90
300,22.31,-649.25,9.13,17.34,-0.02,-18.84
310,22.69,-708.75,24.56,17.18,0.46,-20.16
320,18.62,-761.75,36.38,17.11,0.69,-21.05
330,2.75,-788.62,38.44,16.73,1.02,-21.28
340,-20.62,-779.06,31.37,14.84,1.53,-20.25
350,-60.56,-731.50,19.81,12.56,1.25,-19.03
360,-89.87,-679.19,7.06,10.33,1.18,-17.52
370,-88.00,-644.50,-5.75,7.45,1.10,-15.86
380,-70.06,-599.69,-17.44,2.75,0.84,-12.71
390,-59.69,-531.06,-27.56,-0.44,0.64,-11.37
400,-52.81,-446.44,-22.87,-2.54,0.31,-10.23
410,-32.31,-366.44,-9.81,-4.04,0.90,-9.02
420,-8.94,-284.94,-0.56,-4.29,2.48,-8.78
430,12.44,-209.37,-5.19,-5.14,3.50,-9.63
440,21.19,-137.25,-19.31,-5.25,2.92,-10.86
450,22.37,-84.00,-30.56,-7.15,2.25,-14.40
460,16.31,-55.75,-32.88,-7.69,1.70,-15.27
470,14.06,-50.63,-31.19,-8.05,1.28,-16.09
480,9.19,-54.13,-29.81,-8.67,1.14,-16.35
490,7.06,-60.75,-27.50,-9.44,0.69,-15.23
500,9.00,-63.06,-23.69,-9.94,0.43,-14.45
510,12.56,-53.69,-16.25,-10.10,0.06,-13.64
520,9.94,-25.19,-3.94,-9.98,-0.16,-13.32
530,7.87,11.75,7.50,-8.90,1.07,-12.49
540,5.50,56.69,11.75,-8.63,1.61,-12.27
550,-1.06,114.44,9.88,-8.57,1.58,-11.82
560,-13.44,192.69,9.13,-8.35,1.16,-11.28
570,-45.88,310.94,17.00,-8.27,-0.37,-9.17
580,-73.62,447.62,42.25,-7.08,-1.15,-7.84
590,-81.19,584.06,85.75,-4.94,-1.84,-7.56
600,-80.62,712.12,141.00,-1.44,-1.92,-7.67
610,-70.06,815.81,191.62,7.46,-0.34,-9.60
620,-63.44,905.12,225.12,13.03,1.28,-10.03
630,-63.44,905.12,225.12,19.22,2.92,-9.61
640,-7.75,988.44,204.19,25.66,5.06,-9.94
650,79.94,928.00,128.62,30.61,7.64,-13.06
660,176.94,815.00,30.31,29.38,5.50,-15.54
670,214.25,726.56,-41.44,26.47,1.86,-16.84
680,182.75,701.19,-60.13,23.38,-0.41,-17.17
690,123.87,678.19,-37.06,20.07,-1.42,-19.19
700,53.75,629.44,-7.62,20.74,1.14,-19.00
710,24.81,511.56,-9.19,20.81,2.48,-17.48
720,38.19,334.50,-24.87,16.79,1.55,-18.08
730,38.19,334.50,-24.87,14.95,0.40,-17.92
740,16.94,-3.06,-18.75,14.97,0.00,-16.77
750,-8.69,-136.69,-6.19,15.67,-0.13,-15.36
760,-29.62,-234.75,1.31,18.24,0.44,-8.80
770,-29.50,-292.31,2.62,19.40,0.70,-6.51
780,-29.50,-292.31,2.62,19.64,0.79,-5.14
790,-27.44,-299.81,-3.19,19.17,1.48,-4.18
800,15.81,-299.81,-31.12,17.49,2.26,-6.87
810,60.63,-361.12,-46.19,16.29,1.77,-10.17
820,83.06,-437.56,-53.31,15.49,0.11,-13.33
830,83.06,-437.56,-53.31,13.95,-1.11,-16.60
840,86.94,-510.12,-40.75,13.46,-1.49,-19.90
850,49.44,-596.50,34.13,13.87,-0.84,-20.89
860,22.12,-610.44,64.69,14.32,0.17,-20.94
870,-8.63,-599.81,74.50,15.63,1.02,-20.35
880,-8.63,-599.81,74.50,16.53,3.76,-17.04
890,-42.94,-569.81,57.00,14.90,3.75,-16.42
900,-60.25,-516.44,-17.62,12.66,3.39,-16.32
910,-46.44,-518.00,-44.75,10.10,2.13,-16.82
920,-15.00,-542.94,-56.56,4.66,0.35,-17.62
930,-15.00,-542.94,-56.56,2.18,-0.06,-17.93
940,4.19,-555.75,-51.13,0.11,-0.18,-17.77
950,2.37,-518.87,-12.19,-1.69,-0.10,-16.86
960,-10.88,-459.44,7.56,-3.36,1.15,-13.36
970,-19.94,-380.81,20.69,-3.20,0.77,-11.96
980,-19.94,-380.81,20.69,-3.45,1.62,-11.36
990,-15.75,-304.81,26.25,-3.41,2.86,-10.89
1000,-9.50,-170.69,6.25,-3.97,3.09,-10.81
1010,-8.56,-106.75,-17.00,-4.81,2.49,-10.74
1020,-5.56,-50.38,-37.38,-6.48,1.76,-10.92
1030,-5.56,-50.38,-37.38,-9.03,-0.01,-12.23
1040,5.00,-9.00,-42.38,-9.79,-0.42,-13.29
1050,22.31,48.38,-14.75,-9.90,-0.43,-14.64
1060,19.19,65.62,5.75,-9.19,-0.01,-15.74
1070,18.81,65.12,18.50,-7.39,1.22,-16.81
1080,18.81,65.12,18.50,-6.92,1.62,-16.48
1090,23.31,52.31,22.06,-6.85,1.53,-15.68
1100,19.62,78.12,17.69,-7.26,1.44,-14.49
1110,13.25,132.25,20.81,-7.30,-0.20,-12.35
1120,-9.13,230.69,31.19,-6.24,-0.77,-11.57
1130,-9.13,230.69,31.19,-4.81,-0.48,-10.47
1140,-61.94,386.75,47.31,-3.19,0.11,-9.39
1150,-156.50,737.37,108.06,2.38,0.22,-8.14
1160,-156.06,865.44,152.87,7.85,0.69,-8.29
1170,-130.94,942.25,182.94,14.40,2.69,-8.61
1180,-130.94,942.25,182.94,14.40,2.69,-8.61
1190,-68.00,951.19,177.94,19.62,4.34,-8.56
1200,116.19,811.56,67.56,26.59,6.46,-12.93
1210,169.94,741.69,6.69,25.88,4.22,-14.82
1220,178.44,689.62,-28.00,23.66,1.70,-16.37
1230,178.44,689.62,-28.00,23.66,1.70,-16.37
1240,140.44,663.94,-25.87,20.44,-1.17,-17.82
1250,63.06,563.19,4.56,20.59,1.51,-17.37
1260,26.31,462.12,-9.13,20.47,3.58,-15.96
1270,20.87,327.94,-36.06,17.79,2.53,-15.44
1280,20.87,327.94,-36.06,17.79,2.53,-15.44
1290,16.87,189.37,-45.56,15.76,1.41,-14.96
1300,-1.44,-58.13,-15.75,15.09,0.33,-11.36
1310,-5.12,-156.31,1.44,16.29,0.81,-9.62
1320,-3.69,-228.31,10.31,17.33,1.63,-8.15
1330,-3.69,-228.31,10.31,17.33,1.63,-8.15
1340,-1.19,-272.87,11.06,17.73,1.74,-7.46
1350,7.44,-326.25,6.50,17.42,0.93,-9.79
1360,25.31,-386.00,0.62,16.98,0.37,-12.14
1370,41.19,-455.94,2.19,16.53,-0.16,-14.69
1380,41.19,-455.94,2.19,16.53,-0.16,-14.69
1390,38.50,-506.75,17.19,15.93,-0.71,-18.35
1400,12.13,-542.00,43.13,16.11,0.44,-19.35
1410,-9.25,-591.69,70.25,17.06,1.18,-19.63
1420,-2.50,-657.69,84.56,18.53,2.40,-19.23
1430,5.56,-712.06,78.44,18.53,2.40,-19.23
1440,-4.56,-725.19,60.94,17.65,2.93,-18.77
1450,-27.75,-698.12,36.06,15.06,4.09,-18.49
1460,-49.25,-664.25,-2.87,9.22,3.04,-17.60
1470,-52.38,-638.37,-42.00,5.94,1.78,-17.64
1480,-54.44,-609.87,-67.50,5.94,1.78,-17.64
1490,-61.00,-577.62,-75.75,2.62,0.66,-16.69
1500,-53.69,-551.62,-64.94,-2.76,-0.50,-12.59
1510,-34.44,-522.69,-40.25,-3.49,0.76,-11.48
1520,-18.12,-476.06,-14.19,-4.37,1.81,-10.95
1530,-5.81,-416.06,-1.94,-4.37,1.81,-10.95
1540,-6.31,-339.12,-0.50,-5.67,2.61,-9.87
1550,-3.75,-263.81,-5.81,-7.76,2.48,-9.62
1560,2.87,-199.37,-12.06,-8.72,2.26,-9.34
1570,6.81,-133.62,-15.88,-9.79,1.22,-8.67
1580,2.44,-57.13,-17.00,-9.79,1.22,-8.67
1590,2.87,16.75,-14.50,-9.95,0.70,-9.03
1600,9.56,78.62,-9.13,-9.34,0.68,-11.47
1610,15.69,126.12,-1.37,-7.37,0.77,-14.05
1620,19.00,158.12,5.50,-6.64,1.27,-15.43
1630,16.19,179.69,5.44,-6.64,1.27,-15.43
1640,12.81,184.81,-1.81,-6.35,2.05,-16.07
1650,14.13,176.44,-13.81,-6.65,1.82,-17.67
1660,13.44,164.50,-24.87,-6.76,1.20,-17.78
1670,11.50,157.81,-33.13,-7.25,0.62,-17.35
1680,-1.75,170.56,-35.38,-7.25,0.62,-17.35
1690,-14.19,197.94,-26.62,-7.65,0.03,-16.49
1700,-40.50,265.75,-6.50,-5.89,-1.22,-12.30
1710,-85.50,377.12,26.25,-4.07,-0.84,-10.48
1720,-126.69,522.31,71.56,-0.36,-0.66,-8.99
1730,-167.50,689.50,129.06,-0.36,-0.66,-8.99
1740,-185.44,833.69,181.87,9.88,2.14,-8.19
1750,-175.94,926.25,201.56,21.15,6.63,-6.96
1760,-110.25,945.56,179.81,24.43,6.18,-7.62
1770,-16.69,921.25,131.87,25.98,4.44,-10.59
1780,67.69,886.81,87.81,25.98,4.44,-10.59
1790,136.12,837.31,49.75,26.12,2.27,-11.75
1800,159.62,807.94,31.87,24.52,-0.20,-13.40
1810,146.50,779.62,38.50,23.08,0.33,-12.59
1820,137.12,718.81,47.75,22.10,1.02,-11.77
1830,130.37,636.81,53.88,22.10,1.02,-11.77
1840,120.00,539.81,49.88,21.80,2.59,-11.78
1850,80.62,444.94,26.19,18.79,1.75,-12.82
1860,58.75,324.19,2.31,17.26,1.36,-12.95
1870,43.06,189.62,-4.19,16.51,1.48,-12.39
1880,19.69,54.88,-0.62,16.51,1.48,-12.39
1890,0.88,-72.12,3.69,17.44,0.74,-9.03
1900,-13.38,-168.87,7.00,19.37,0.21,-4.35
1910,-16.37,-232.44,7.12,19.41,0.61,-2.87
1920,-11.75,-259.75,7.56,18.08,1.28,-2.27
1930,2.87,-283.31,4.12,18.08,1.28,-2.27
1940,32.88,-330.75,-1.44,17.19,1.09,-4.11
1950,56.56,-389.06,-1.00,17.45,-0.04,-10.11
1960,62.00,-447.56,5.87,18.16,-0.14,-14.22
1970,53.88,-511.56,13.13,18.71,-0.31,-16.23
1980,46.81,-580.12,27.75,18.71,-0.31,-16.23
1990,28.37,-629.00,49.13,19.17,0.39,-17.57
2000,4.44,-662.87,57.31,21.20,2.13,-17.05
2010,-6.87,-691.69,44.88,20.30,2.14,-18.19
2020,-7.12,-712.50,22.12,18.37,1.98,-19.52
2030,-11.00,-724.06,-2.50,18.37,1.98,-19.52
2040,-32.50,-724.44,-16.56,15.80,1.58,-20.57
2050,-56.25,-716.75,-20.62,10.14,0.18,-19.11
2060,-67.00,-712.87,-20.56,7.67,-0.17,-18.41
2070,-64.75,-708.50,-18.62,4.91,-0.09,-17.40
2080,-60.13,-690.19,-11.06,4.91,-0.09,-17.40
2090,-54.56,-650.94,2.19,0.54,0.04,-14.21
2100,-47.00,-594.00,20.62,-3.70,0.99,-10.90
2110,-34.06,-525.75,36.94,-4.07,1.24,-8.82
2120,-21.25,-437.94,53.69,-3.99,2.68,-7.99
2130,-19.69,-331.56,66.75,-3.99,2.68,-7.99
2140,-23.31,-223.75,59.63,-4.23,4.02,-7.68
2150,-31.06,-117.50,34.38,-6.32,4.16,-7.10
2160,-26.19,-25.19,0.06,-7.61,2.79,-8.17
2170,-14.50,57.00,-30.00,-8.44,1.45,-9.55
2180,-3.50,127.81,-45.31,-8.44,1.45,-9.55
2190,10.81,175.87,-45.25,-9.02,0.71,-11.34
2200,19.75,204.56,-31.81,-7.64,0.74,-16.94
2210,27.56,208.37,-11.75,-6.60,1.31,-18.25
2220,34.44,187.62,1.94,-6.60,1.31,-18.25
2230,36.88,156.75,6.06,-5.93,2.08,-18.98
2240,31.00,129.25,2.81,-4.78,2.58,-19.26
2250,25.12,107.19,-5.87,-4.09,2.11,-18.78
2260,2.25,121.87,-17.81,-3.83,1.77,-18.26
2270,-40.00,183.31,-29.06,-3.79,2.22,-17.01
2280,-77.87,265.25,-36.06,-5.06,2.03,-13.58
2290,-102.56,368.62,-26.06,-5.30,1.44,-11.38
2300,-114.12,500.19,8.75,-4.22,-0.05,-9.42
2310,-132.81,668.06,73.37,-2.21,-0.93,-8.34
2320,-145.37,832.25,150.69,7.50,-0.83,-8.09
2330,-153.31,955.31,216.06,15.01,0.36,-8.00
2340,-140.50,1021.12,234.56,21.71,4.23,-6.92
2350,-54.31,1001.25,196.56,27.62,7.01,-5.44
2360,80.00,913.31,107.50,31.17,7.55,-7.59
2370,162.25,855.69,27.81,29.27,4.06,-7.90
2380,185.37,849.87,-1.19,27.74,0.59,-8.51
2390,167.75,866.94,11.88,25.34,-2.33,-11.73
2400,134.62,855.81,50.06,24.97,-1.52,-12.64
2410,119.62,768.94,80.56,24.71,0.92,-12.87
2420,111.00,622.56,74.44,23.86,4.29,-14.54
2430,69.00,451.37,30.25,21.31,5.50,-16.19
2440,50.50,249.50,-14.44,17.66,3.05,-16.44
2450,22.06,56.63,-29.19,16.30,1.03,-14.87
2460,-6.62,-112.56,-17.94,15.46,-0.43,-13.14
2470,-31.50,-240.19,-3.12,18.54,0.55,-5.90
2480,-34.13,-326.31,1.25,19.91,0.61,-2.95
2490,-30.37,-358.12,2.25,20.26,0.51,-1.20
2500,-21.62,-362.44,2.12,20.08,1.34,-0.28
2510,2.06,-381.50,-4.19,17.94,2.91,-2.72
2520,30.75,-437.81,-13.44,17.73,2.27,-5.68
2530,59.13,-522.00,-18.44,18.10,0.54,-9.18
2540,68.00,-591.87,-1.37,17.83,-0.20,-12.84
2550,47.88,-642.00,27.69,19.29,0.62,-16.53
2560,33.44,-698.62,48.75,20.17,1.35,-18.37
2570,35.56,-772.50,57.44,20.81,1.57,-19.74
2580,25.81,-824.19,58.88,21.29,1.89,-21.25
2590,2.62,-841.50,45.81,22.49,3.33,-20.83
2600,-37.94,-826.75,15.06,20.59,3.55,-20.43
2610,-71.31,-805.62,-14.63,18.12,3.15,-19.75
2620,-92.19,-780.75,-36.75,15.04,2.65,-18.67
2630,-98.19,-744.69,-50.56,9.36,1.39,-15.17
2640,-86.81,-709.19,-58.13,5.58,0.78,-13.62
2650,-64.12,-664.25,-56.44,1.92,0.09,-12.56
2660,-43.00,-601.00,-44.00,-3.89,-0.39,-9.84
2670,-22.69,-519.69,-18.81,-5.83,-0.65,-8.31
2680,7.19,-437.19,14.63,-6.71,0.36,-8.35
2690,3.06,-330.69,40.38,-6.87,1.97,-8.92
2700,-9.81,-229.87,44.75,-6.19,4.25,-9.36
2710,-17.25,-145.87,31.37,-6.77,4.59,-9.73
2720,-16.12,-79.25,12.31,-7.12,4.77,-9.53
2730,-3.56,-25.50,-8.19,-7.94,4.33,-9.44
2740,0.81,32.00,-20.62,-9.62,2.18,-10.44
2750,4.12,83.56,-22.94,-9.87,1.28,-11.30
2760,7.75,123.69,-17.00,-10.16,0.76,-12.59
2770,5.75,153.37,-2.44,-9.99,0.85,-13.61
2780,0.37,176.44,12.75,-8.56,1.93,-14.49
2790,-7.44,205.00,21.56,-7.79,2.36,-14.13
2800,-17.00,249.56,27.12,-6.93,2.68,-13.32
2810,-25.56,313.94,32.63,-6.11,2.67,-12.50
2820,-31.94,399.44,45.81,-4.34,2.25,-10.54
2830,-38.00,508.56,65.87,-1.93,1.99,-10.54
2840,-68.25,655.12,87.31,1.60,2.25,-10.11
2850,-102.12,817.87,113.19,4.58,2.48,-8.93
2860,-122.75,955.69,142.25,15.41,2.55,-9.08
2870,-96.00,1012.56,146.06,20.46,4.90,-9.02
2880,-14.06,985.56,118.19,24.35,6.14,-9.81
2890,74.12,926.00,73.94,26.57,6.17,-10.61
2900,133.69,871.75,30.31,26.50,3.91,-13.31
2910,152.56,838.81,8.44,25.44,1.76,-13.48
2920,132.06,831.19,17.62,24.51,0.27,-13.49
2930,100.75,808.12,43.81,24.06,0.02,-13.50
2940,89.12,729.31,58.06,23.63,2.57,-14.68
2950,86.56,604.19,51.56,22.25,4.08,-15.05
2960,61.69,455.37,21.94,20.95,5.22,-17.45
2970,43.44,269.50,-7.62,16.05,2.12,-17.99
2980,30.75,64.50,-14.25,15.09,0.57,-17.35
2990,1.62,-112.00,0.44,15.20,0.12,-15.80
3000,-30.19,-247.94,14.56,17.63,1.25,-12.28
3010,-39.69,-341.62,11.06,20.22,1.63,-6.14
3020,-49.88,-376.44,3.87,20.32,1.28,-4.31
3030,-47.81,-386.00,-2.44,20.13,1.51,-3.82
3040,-24.31,-411.31,-12.56,19.59,1.89,-4.76
3050,7.81,-457.06,-17.50,19.02,2.06,-7.85
3060,26.19,-491.06,-14.63,18.77,2.49,-10.40
3070,23.37,-517.94,-11.88,18.30,2.14,-12.16
3080,21.37,-551.06,-2.06,17.56,1.96,-14.57
3090,16.06,-588.62,9.13,18.25,2.86,-16.43
3100,15.31,-633.00,8.44,18.12,3.25,-17.81
3110,19.25,-683.25,-3.44,17.93,2.74,-18.86
3120,29.00,-725.31,-14.94,16.32,2.57,-20.06
3130,19.94,-743.50,-17.50,13.25,1.87,-21.49
3140,-3.44,-746.25,-8.94,11.44,1.71,-22.04
3150,-25.44,-750.31,4.25,10.20,2.05,-22.12
3160,-49.63,-743.69,11.81,8.83,2.46,-21.45
3170,-74.56,-711.50,12.00,6.60,2.88,-17.42
3180,-87.87,-664.56,2.37,3.90,3.49,-15.35
3190,-96.37,-598.19,-10.00,1.61,3.45,-12.92
3200,-94.94,-516.87,-21.81,-0.95,3.58,-10.75
3210,-51.69,-456.56,-27.31,-5.32,1.53,-6.96
3220,-11.19,-387.31,-22.87,-7.50,1.66,-7.38
3230,-1.56,-300.06,-12.06,-8.98,2.10,-7.11
3240,-8.06,-205.69,3.25,-10.27,2.91,-7.04
3250,-12.06,-113.56,16.56,-10.44,3.17,-6.53
3260,-13.00,-18.62,24.12,-9.80,3.47,-6.49
3270,-9.56,64.31,22.62,-9.20,3.49,-7.38
3280,-1.62,125.06,18.06,-8.43,3.31,-10.04
3290,6.25,166.69,13.88,-6.89,3.29,-11.40
3300,9.69,193.12,0.44,-5.92,3.52,-13.74
3310,11.00,196.06,-20.75,-6.51,4.38,-14.51
3320,16.94,190.12,-40.13,-7.81,3.37,-16.04
3330,12.13,198.69,-48.69,-8.28,3.00,-16.05
3340,5.81,216.44,-43.38,-8.25,2.93,-16.23
3350,-9.13,246.56,-32.75,-7.60,3.03,-16.39
3360,-19.62,283.31,-21.00,-7.53,2.47,-15.10
3370,-29.50,338.25,0.94,-7.04,1.59,-13.98
3380,-49.75,432.06,33.69,-5.12,1.49,-12.43
3390,-89.94,581.37,65.19,-2.14,1.85,-11.07
3400,-143.12,752.75,103.87,5.32,2.23,-8.72
3410,-161.31,885.37,141.94,10.58,3.48,-6.98
3420,-134.44,966.12,159.94,17.14,5.30,-5.89
3430,-55.06,982.87,136.44,23.30,7.52,-5.34
3440,42.63,970.12,83.37,27.62,6.39,-8.41
3450,94.44,982.69,48.06,27.60,3.99,-8.89
3460,112.75,1003.31,47.25,27.85,1.67,-9.21
3470,115.75,1004.44,65.94,27.91,0.75,-9.48
3480,118.37,957.94,87.69,27.27,0.34,-12.25
3490,133.94,850.06,104.12,26.06,1.29,-13.73
3500,130.00,704.69,104.69,24.66,2.28,-15.10
3510,78.50,561.62,78.37,24.01,5.15,-16.71
3520,19.62,387.69,19.56,21.90,6.34,-16.27
3530,6.37,174.56,-24.81,18.40,4.20,-15.64
3540,-9.94,-22.25,-38.06,16.46,2.65,-13.52
3550,-26.44,-189.44,-30.31,16.42,1.29,-7.47
3560,-36.25,-307.25,-21.94,17.46,0.86,-4.45
3570,-39.44,-370.81,-12.56,17.89,0.52,-2.16
3580,-29.12,-399.81,0.25,18.78,0.79,-0.86
3590,-7.94,-418.50,7.19,19.10,2.81,-1.49
3600,17.19,-447.81,3.19,19.11,2.92,-3.54
3610,43.81,-488.31,-0.44,19.55,2.27,-6.20
3620,58.44,-528.06,3.69,19.44,1.63,-9.69
3630,49.44,-567.19,15.69,18.92,2.21,-13.75
3640,41.56,-618.56,30.37,19.60,3.06,-16.16
3650,35.56,-681.94,36.38,20.19,3.77,-17.34
3660,33.44,-738.56,32.56,20.79,3.99,-18.29
3670,26.87,-773.69,22.31,20.53,4.13,-18.75
3680,15.13,-787.12,7.62,19.17,3.60,-19.54
3690,-4.12,-786.56,-6.12,17.46,3.41,-19.84
3700,-22.69,-779.31,-20.25,15.72,2.80,-19.53
3710,-35.13,-760.50,-35.88,11.62,2.61,-18.00
3720,-50.88,-719.19,-49.56,7.99,2.37,-16.81
3730,-67.87,-651.12,-54.00,4.11,1.85,-14.87
3740,-77.31,-568.94,-50.06,1.42,1.10,-13.30
3750,-51.38,-505.87,-33.56,-3.83,-1.12,-8.55
3760,-6.50,-440.12,-2.37,-5.56,-0.21,-9.31
3770,3.12,-347.50,23.94,-5.89,1.29,-8.76
3780,4.44,-250.62,37.50,-5.31,3.23,-10.19
3790,-5.12,-160.19,38.31,-4.78,4.60,-10.55
3800,0.19,-101.06,23.19,-5.28,5.27,-11.07
3810,7.56,-53.69,4.37,-5.66,5.40,-11.46
3820,5.56,-0.31,-13.63,-7.57,3.67,-12.40
3830,0.13,51.13,-23.94,-8.42,2.57,-12.82
3840,0.50,88.69,-23.31,-8.49,1.82,-13.72
3850,4.62,108.31,-19.56,-8.24,1.44,-14.54
3860,15.56,107.50,-13.75,-7.93,1.50,-15.83
3870,16.75,109.00,-6.44,-7.66,1.46,-16.23
3880,11.56,116.19,3.06,-7.07,1.96,-15.91
3890,7.37,134.19,8.38,-6.30,2.40,-15.50
3900,-4.81,178.31,9.88,-5.68,2.80,-14.35
3910,-19.56,244.06,11.06,-4.68,2.93,-13.95
3920,-44.19,334.81,12.38,-3.70,3.00,-13.43
3930,-69.56,442.75,19.62,-2.58,2.68,-12.40
3940,-87.25,557.25,38.56,1.04,2.19,-11.05
3950,-93.31,664.25,63.88,4.16,2.55,-10.55
3960,-82.75,754.94,91.37,7.54,3.05,-10.02
3970,-65.37,825.62,110.44,12.40,3.14,-9.82
3980,-30.12,862.69,108.00,20.12,4.79,-9.95
3990,25.12,870.25,81.75,22.88,4.89,-10.45
4000,68.69,869.62,53.19,24.26,4.27,-10.98
4010,90.31,860.31,34.13,25.24,3.53,-11.93
4020,101.19,827.50,24.69,23.73,2.15,-14.55
4030,103.56,765.81,27.50,22.99,1.62,-15.35
4040,99.62,674.87,33.13,21.95,1.59,-15.66
4050,68.94,577.87,33.63,20.81,2.63,-16.82
4060,20.44,453.12,16.31,20.07,4.17,-17.59
4070,18.12,275.25,-4.12,17.56,3.15,-17.95
4080,0.13,106.19,-7.06,16.28,2.53,-16.91
4090,-16.50,-54.06,-2.25,15.93,1.66,-12.57
4100,-25.69,-187.31,4.19,17.15,1.57,-9.40
4110,-30.25,-266.12,7.00,17.74,1.41,-7.01
4120,-33.44,-306.69,4.56,17.47,1.51,-5.45
4130,-12.56,-340.44,8.19,18.05,2.24,-5.29
4140,12.38,-376.81,8.00,18.57,3.17,-6.88
4150,48.63,-430.62,1.69,18.46,2.45,-9.05
4160,65.94,-473.44,4.69,17.66,2.17,-12.68
4170,62.13,-519.19,16.37,17.00,1.55,-17.60
4180,48.44,-577.69,30.62,17.21,2.01,-18.98
4190,38.56,-646.06,38.81,17.51,2.11,-19.45
4200,25.94,-683.25,46.56,17.70,2.08,-19.81
4210,-1.44,-683.87,45.94,18.16,3.41,-18.23
4220,-13.88,-678.37,27.75,17.34,3.78,-18.11
4230,-23.69,-663.31,-1.81,15.21,3.87,-18.29
4240,-21.44,-666.00,-26.37,12.89,3.18,-18.41
4250,-21.44,-666.00,-26.37,8.07,1.79,-17.88
4260,-11.63,-649.81,-37.69,5.94,1.32,-17.18
4270,-25.06,-605.81,-32.13,3.47,1.53,-16.00
4280,-45.94,-531.12,-26.50,1.49,1.54,-14.22
4290,-66.50,-429.19,-22.94,-1.15,2.14,-10.29
4300,-66.50,-429.19,-22.94,-4.05,2.41,-8.78
4310,-60.13,-335.00,-27.37,-5.69,0.79,-8.27
4320,-3.12,-179.87,-16.19,-7.06,0.73,-8.90
4330,11.25,-110.25,-5.25,-7.44,1.13,-10.64
4340,14.56,-47.19,4.56,-7.47,1.30,-11.73
4350,14.56,-47.19,4.56,-7.31,1.78,-12.58
4360,26.31,29.31,14.50,-6.38,3.21,-15.17
4370,25.31,51.69,8.25,-5.99,3.48,-16.07
4380,11.25,76.06,-4.31,-5.16,2.93,-17.14
4390,-4.56,88.19,-19.87,-5.04,3.16,-17.36
4400,-4.56,88.19,-19.87,-6.41,2.23,-16.99
4410,-8.25,89.56,-30.06,-6.45,1.96,-16.70
4420,-14.94,108.69,-26.69,-6.20,1.99,-16.63
4430,-15.88,119.81,-27.00,-5.62,2.20,-16.81
4440,-19.19,136.94,-29.37,-5.86,1.98,-16.29
4450,-19.19,136.94,-29.37,-6.37,1.55,-15.61
4460,-34.81,228.12,-15.81,-6.64,1.05,-14.77
4470,-57.94,325.44,8.19,-5.72,0.86,-14.30
4480,-57.94,325.44,8.19,-2.46,1.20,-13.06
4490,-117.75,575.56,80.44,0.51,2.05,-11.78
4500,-117.75,575.56,80.44,4.24,2.76,-9.79
4510,-143.75,714.31,120.56,10.22,2.82,-8.90
4520,-107.44,887.56,137.56,19.19,4.26,-6.32
4530,-61.50,953.37,117.19,22.79,5.10,-6.14
4540,-13.81,1000.12,96.75,26.81,5.61,-5.03
4550,-13.81,1000.12,96.75,29.08,4.69,-5.01
4560,48.13,1019.94,72.37,29.96,1.35,-8.34
4570,84.06,1034.38,67.06,29.91,1.11,-9.12
4580,100.69,1028.38,75.81,29.66,3.08,-12.63
4590,73.81,870.87,57.56,29.53,5.51,-14.32
4600,73.81,870.87,57.56,23.80,5.46,-19.40
4610,88.44,658.62,11.00,20.64,5.02,-19.69
4620,15.75,210.62,-39.81,17.99,4.64,-19.24
4630,-22.87,-10.56,-51.38,15.85,1.41,-12.93
4640,-46.56,-194.12,-49.56,15.86,0.27,-8.13
4650,-46.56,-194.12,-49.56,16.65,0.28,-3.43
4660,-52.63,-313.06,-35.88,17.25,0.54,0.08
4670,-49.44,-363.81,-18.25,18.45,2.20,3.95
4680,-47.19,-354.44,-2.25,18.42,2.33,4.00
4690,0.75,-314.06,4.50,18.18,2.74,3.11
4700,0.75,-314.06,4.50,18.10,3.92,0.68
4710,32.56,-307.12,2.12,17.78,1.13,-6.81
4720,87.00,-371.87,7.12,17.21,1.00,-11.50
4730,64.12,-423.31,28.81,16.95,1.77,-15.68
4740,31.50,-511.81,42.88,17.75,2.67,-17.38
4750,31.50,-511.81,42.88,19.84,2.43,-16.95
4760,23.94,-629.37,44.69,21.00,2.48,-17.00
4770,25.31,-725.62,51.44,22.32,3.22,-16.61
4780,19.12,-781.75,53.44,22.49,3.78,-16.19
4790,-3.56,-774.87,16.44,20.16,4.13,-16.27
4800,-3.56,-774.87,16.44,18.01,4.00,-16.99
4810,-16.06,-749.44,-5.69,15.11,3.62,-17.87
4820,-29.62,-725.44,-35.06,12.71,2.81,-17.76
4830,-29.62,-725.44,-35.06,8.65,2.39,-15.30
4840,-26.50,-663.62,-39.25,6.70,2.11,-14.49
4850,-26.50,-663.62,-39.25,3.50,2.83,-13.58
4860,-21.19,-610.00,-42.75,0.49,2.78,-12.80
4870,-19.69,-536.69,-44.06,-4.19,2.47,-10.67
4880,-18.81,-449.12,-42.56,-6.49,1.71,-10.53
4890,21.06,-304.62,-30.75,-8.47,1.22,-10.77
4900,21.06,-304.62,-30.75,-9.88,1.02,-11.22
4910,21.31,-228.56,-12.38,-9.09,1.20,-11.80
4920,1.56,-148.75,13.13,-8.37,2.53,-11.20
4930,-6.00,-89.75,25.19,-8.12,3.47,-10.99
4940,6.31,2.00,10.69,-8.37,3.78,-11.27
4950,6.31,2.00,10.69,-8.49,3.18,-11.95
4960,8.75,52.63,1.00,-8.17,2.75,-12.85
4970,-1.56,113.44,-4.06,-7.43,2.79,-13.04
4980,-16.94,174.31,-11.50,-7.20,2.74,-13.41
4990,-30.87,233.50,-20.56,-6.76,2.90,-12.92
5000,-44.13,293.62,-26.00,-5.91,2.31,-12.93
5010,-45.63,352.06,-26.12,-4.74,2.09,-13.32
5020,-48.63,416.25,-20.87,-3.49,0.70,-13.50
5030,-48.25,482.25,-4.56,-1.12,1.28,-13.11
5040,-48.25,482.25,-4.56,1.41,1.41,-12.47
5050,-65.25,659.62,44.81,4.15,0.89,-11.62
5060,-79.87,780.75,79.25,13.41,1.43,-10.92
5070,-89.00,905.31,117.56,19.74,3.02,-10.19
5080,-79.56,993.44,142.00,25.17,5.59,-9.59
5090,-34.88,1017.00,131.69,28.81,6.61,-9.34
5100,46.25,978.81,86.37,27.74,4.39,-13.44
5110,122.50,916.00,33.06,25.46,3.02,-17.86
5120,135.69,869.37,4.06,24.60,2.57,-18.63
5130,71.81,827.12,0.06,23.51,2.41,-18.66
5140,71.81,827.12,0.06,21.78,2.72,-20.39
5150,43.50,548.50,-0.06,20.72,3.94,-20.38
5160,35.44,367.25,-8.31,20.03,4.73,-19.12
5170,-8.75,206.31,-26.25,19.04,4.51,-16.32
5180,-44.00,50.56,-46.63,15.17,1.09,-9.43
5190,-44.00,50.56,-46.63,14.56,-0.12,-6.07
5200,-52.19,-101.06,-58.06,15.19,-0.19,-3.14
5210,-38.69,-265.69,-12.06,17.41,1.60,-0.05
5220,-31.00,-263.81,13.06,18.01,2.52,0.47
5230,-25.87,-231.06,26.50,18.66,2.80,-0.04
5240,-25.87,-231.06,26.50,18.79,2.90,-1.18
5250,-18.06,-188.12,28.44,17.63,2.72,-5.11
5260,4.56,-130.25,13.00,16.36,2.29,-7.63
5270,16.44,-145.50,1.50,15.06,2.95,-10.02
5280,26.44,-198.44,-1.75,14.28,2.81,-12.32
5290,26.44,-198.44,-1.75,15.00,1.75,-16.21
5300,44.38,-307.69,-0.94,16.48,2.37,-17.66
5310,76.19,-539.62,50.69,18.35,2.43,-18.69
5320,77.75,-641.25,67.06,19.49,2.67,-20.05
5330,91.44,-733.00,71.50,20.52,3.26,-21.49
5340,91.44,-733.00,71.50,20.52,3.26,-21.49
5350,88.50,-792.56,68.12,19.17,4.03,-22.78
5360,15.56,-819.12,51.31,18.17,3.81,-22.23
5370,-24.94,-814.19,32.88,14.77,3.47,-18.35
5380,-46.81,-797.06,5.87,11.58,3.12,-16.80
5390,-46.81,-797.06,5.87,11.58,3.12,-16.80
5400,-60.56,-757.19,-23.44,4.11,2.34,-12.97
5410,-66.19,-618.87,-69.31,-1.82,1.04,-8.62
5420,-73.87,-512.81,-74.62,-6.08,-0.38,-5.77
5430,-43.19,-424.62,-65.87,-8.38,-1.97,-6.20
5440,-43.19,-424.62,-65.87,-8.38,-1.97,-6.20
5450,6.12,-332.87,-39.44,-8.84,1.23,-9.47
5460,18.25,-105.75,22.87,-7.40,2.49,-11.12
5470,5.69,-12.06,33.63,-6.30,3.62,-12.58
5480,0.56,45.81,24.00,-6.47,3.88,-14.01
5490,0.56,45.81,24.00,-6.47,3.88,-14.01
5500,0.81,90.56,-16.50,-6.92,2.96,-14.49
5510,0.56,106.94,-24.56,-7.43,1.40,-14.93
5520,1.69,121.87,-26.37,-7.67,0.77,-15.73
5530,0.69,136.87,-21.44,-7.03,1.05,-16.04
5540,0.69,136.87,-21.44,-7.03,1.05,-16.04
5550,-3.87,153.94,-13.69,-5.72,2.15,-15.91
5560,-14.44,193.00,-6.87,-4.21,2.67,-15.14
5570,-28.19,236.81,-8.31,-3.26,2.29,-14.62
5580,-39.69,293.44,-13.13,-2.71,1.87,-13.97
5590,-39.69,293.44,-13.13,-2.71,1.87,-13.97
5600,-51.00,365.75,-18.56,-2.05,0.85,-13.43
5610,-76.56,567.69,7.00,3.09,-0.04,-12.28
5620,-92.37,687.44,45.06,7.77,1.10,-11.98
5630,-96.56,782.00,89.12,12.61,3.06,-11.90
5640,-96.56,782.00,89.12,12.61,3.06,-11.90
5650,-62.56,814.75,108.75,19.25,5.51,-13.80
5660,50.44,781.87,63.69,23.86,4.45,-14.00
5670,70.94,783.69,29.62,24.31,3.39,-13.87
5680,73.87,794.87,2.56,23.58,3.36,-17.70
5690,73.87,794.87,2.56,23.58,3.36,-17.70
5700,40.00,808.81,-4.75,24.20,3.34,-16.43
5710,7.87,683.94,-25.44,21.05,3.13,-17.45
5720,12.25,550.81,-30.31,19.14,3.57,-17.29
5730,5.44,403.75,-31.69,18.39,3.72,-16.06
5740,5.44,403.75,-31.69,18.39,3.72,-16.06
5750,-15.19,257.37,-37.25,17.50,3.36,-14.13
5760,-39.44,-17.19,-44.00,15.19,1.27,-6.48
5770,-36.81,-123.62,-28.44,15.69,1.19,-4.07
5780,-29.44,-191.50,-10.88,17.12,1.13,-1.98
5790,-29.44,-191.50,-10.88,17.12,1.13,-1.98
5800,-24.87,-210.94,5.12,19.55,2.51,0.48
5810,-24.37,-177.19,16.44,19.70,3.97,-0.12
5820,-27.06,-114.69,14.88,18.82,3.06,-1.79
5830,-19.87,-60.38,-0.44,15.64,2.21,-6.30
5840,-12.00,-26.00,-14.38,15.64,2.21,-6.30
5850,-4.50,-25.19,-18.81,15.08,2.63,-8.30
5860,7.81,-73.62,-13.13,13.72,4.26,-12.18
5870,25.81,-162.81,-4.00,14.76,1.90,-15.91
5880,42.38,-288.56,3.00,16.76,2.02,-18.10
5890,70.06,-440.87,23.69,16.76,2.02,-18.10
5900,92.94,-583.87,58.44,18.69,1.89,-19.39
5910,101.50,-708.81,84.12,22.60,3.64,-20.18
5920,105.44,-811.56,100.44,23.07,4.38,-20.24
5930,93.12,-865.87,107.75,22.81,5.44,-20.52
5940,60.75,-873.12,101.31,22.81,5.44,-20.52
5950,11.50,-841.81,77.31,21.38,6.08,-19.01
5960,-45.06,-779.19,30.19,10.78,2.83,-12.55
5970,-83.75,-702.31,-27.00,6.45,1.43,-10.99
5980,-92.37,-627.12,-75.00,2.05,0.25,-10.25
5990,-63.06,-571.50,-101.56,2.05,0.25,-10.25
6000,-14.06,-520.12,-104.37,-3.59,-0.75,-10.20
6010,19.00,-453.94,-83.75,-5.96,-0.93,-11.70
6020,41.75,-382.00,-47.94,-5.81,1.93,-13.22
6030,45.19,-300.94,-12.38,-5.86,2.57,-13.56
6040,43.56,-231.44,7.25,-5.86,2.57,-13.56
6050,32.94,-167.56,15.63,-5.65,2.87,-13.26
6060,9.75,-92.81,17.06,-5.56,1.76,-13.36
6070,-6.37,-24.37,10.88,-5.67,1.28,-13.86
6080,-6.56,27.87,0.00,-6.44,0.79,-14.30
6090,-5.62,72.56,-14.69,-6.44,0.79,-14.30
6100,-2.19,105.31,-26.75,-6.84,0.23,-15.05
6110,7.06,124.50,-27.00,-6.06,0.70,-17.25
6120,5.81,145.44,-20.44,-5.45,0.91,-17.59
6130,-3.19,164.25,-12.38,-4.66,1.13,-17.87
6140,-5.81,171.00,-5.25,-4.66,1.13,-17.87
6150,-5.06,174.56,-1.81,-3.86,1.89,-18.14
6160,-8.75,182.19,0.37,-1.84,1.86,-16.83
6170,-20.50,203.31,2.25,-1.34,1.51,-15.76
6180,-39.19,252.81,-0.37,0.51,0.77,-13.75
6190,-63.25,328.87,-1.69,0.51,0.77,-13.75
6200,-95.06,434.94,3.31,2.33,0.60,-11.33
6210,-138.50,571.12,16.81,8.14,1.53,-9.74
6220,-151.75,700.87,40.69,15.57,3.75,-11.01
6230,-129.25,787.31,72.62,18.93,4.68,-11.95
6240,-69.00,814.00,93.44,18.93,4.68,-11.95
6250,-1.19,805.50,94.19,20.81,5.02,-12.33
6260,44.75,791.12,84.31,24.49,4.36,-14.66
6270,61.75,774.87,73.44,25.99,5.14,-16.51
6280,67.75,749.87,56.75,24.52,4.07,-15.61
6290,36.31,724.25,21.00,24.52,4.07,-15.61
6300,18.19,663.25,-26.44,22.01,3.72,-16.05
6310,19.87,561.62,-49.38,16.00,1.20,-16.34
6320,20.31,431.56,-53.75,15.43,1.47,-15.83
6330,14.75,289.62,-42.44,15.67,1.66,-12.96
6340,4.56,141.94,-25.56,15.67,1.66,-12.96
6350,-12.31,0.75,-11.56,16.45,1.72,-10.04
6360,-24.87,-120.69,0.06,17.83,1.87,-4.20
6370,-29.06,-207.75,6.81,18.79,2.08,-0.85
6380,-25.81,-244.06,12.50,18.67,1.73,-0.63
6390,-27.75,-229.87,14.13,18.67,1.73,-0.63
6400,-23.12,-189.62,11.25,18.54,2.51,-1.67
6410,-12.06,-145.81,6.75,15.52,1.95,-9.25
6420,11.38,-132.56,-2.62,14.52,2.40,-11.51
6430,30.06,-145.37,-0.06,14.66,2.18,-13.96
6440,36.06,-200.19,7.69,14.66,2.18,-13.96
6450,53.56,-303.12,23.50,15.35,2.66,-16.46
6460,72.25,-428.06,41.56,18.73,1.86,-18.61
6470,77.81,-546.44,55.31,19.53,1.91,-18.69
6480,70.81,-629.19,64.94,19.89,2.36,-18.26
6490,47.13,-670.00,69.06,19.89,2.36,-18.26
6500,21.62,-677.69,61.38,18.81,3.13,-16.98
6510,-4.25,-659.37,40.38,14.64,2.70,-17.44
6520,-19.50,-636.75,12.94,12.13,2.35,-17.90
6530,-21.06,-633.62,-10.69,8.17,1.54,-17.01
6540,-4.81,-646.75,-22.87,8.17,1.54,-17.01
6550,3.44,-645.69,-23.87,5.94,1.23,-16.25
6560,4.37,-619.00,-17.94,0.90,0.85,-12.94
6570,-6.87,-555.94,-9.63,-1.51,1.39,-11.03
6580,-15.88,-467.75,2.44,-2.67,1.56,-10.79
6590,-12.19,-376.62,11.81,-2.67,1.56,-10.79
6600,-12.56,-278.62,14.56,-2.94,2.14,-10.61
6610,-12.25,-185.56,12.13,-4.47,1.91,-11.77
6620,-1.56,-106.75,4.19,-4.39,1.77,-12.16
6630,-2.44,-27.31,-0.62,-4.46,1.80,-12.75
6640,-4.25,42.44,-6.56,-4.46,1.80,-12.75
6650,4.94,92.31,-14.13,-4.90,1.38,-15.24
6660,11.13,131.62,-16.94,-4.07,1.19,-17.28
6670,10.88,164.31,-15.56,-3.52,1.22,-17.86
6680,7.69,184.56,-13.19,-2.11,1.71,-18.14
6690,2.25,196.37,-8.88,-2.11,1.71,-18.14
6700,-4.12,206.94,-5.25,-1.42,1.98,-17.64
6710,-13.69,223.00,-3.87,-0.47,1.97,-17.11
6720,-22.31,252.12,-5.31,2.92,2.23,-14.90
6730,-34.75,299.44,-7.62,2.92,2.23,-14.90
6740,-48.69,357.31,-10.44,4.05,2.23,-14.01
6750,-49.50,415.12,-15.94,5.29,1.76,-14.06
6760,-41.38,476.81,-15.81,7.14,1.63,-13.66
6770,-38.31,547.62,-7.25,10.50,1.06,-13.25
6780,-47.81,639.37,11.06,13.65,1.39,-12.65
6790,-59.81,737.56,31.81,17.23,2.01,-11.97
6800,-49.13,794.94,44.38,19.74,2.66,-11.36
6810,-5.81,797.81,43.50,22.60,3.91,-14.35
6820,27.19,778.19,32.63,23.67,3.91,-14.46
6830,28.56,748.75,9.81,23.89,3.28,-15.17
6840,32.19,696.44,-12.38,23.07,3.08,-15.45
6850,26.37,627.81,-28.31,20.47,2.99,-16.75
6860,16.69,533.75,-38.81,19.31,3.13,-16.30
6870,-0.37,417.94,-44.00,18.11,3.20,-15.56
6880,-15.69,287.00,-47.69,15.12,1.82,-12.58
6890,-26.31,150.94,-48.25,13.71,0.55,-10.65
6900,-28.37,19.19,-37.94,14.35,0.34,-8.31
6910,-26.62,-89.06,-11.81,15.63,0.83,-5.98
6920,-18.19,-164.12,12.25,19.63,1.98,-1.97
6930,-20.12,-190.56,24.81,20.61,2.80,-0.35
6940,-25.00,-164.75,20.75,20.71,3.29,0.61
6950,-24.62,-107.69,7.94,20.31,3.85,0.44
6960,-26.31,-41.38,-5.75,17.98,3.63,-0.95
6970,-20.50,5.25,-18.31,16.91,2.53,-2.57
6980,-7.37,22.69,-22.75,16.13,1.91,-4.44
6990,4.81,17.75,-17.12,15.16,2.00,-6.32
7000,11.69,-16.62,-8.75,13.77,1.86,-9.41
7010,26.62,-90.12,2.94,14.21,2.02,-11.04
7020,45.69,-191.37,20.44,14.85,1.80,-12.96
7030,61.13,-303.44,37.31,15.72,1.47,-14.96
7040,69.37,-419.81,56.81,18.61,2.69,-16.64
7050,72.56,-533.00,74.00,20.24,3.32,-16.85
7060,70.50,-630.62,81.44,21.37,4.12,-17.02
7070,56.88,-692.69,77.19,22.30,4.21,-16.73
7080,35.13,-713.94,62.31,22.00,4.35,-15.12
7090,14.31,-702.44,32.94,19.34,3.90,-15.74
7100,9.38,-676.81,-4.81,16.49,2.79,-16.76
7110,6.37,-655.00,-29.94,14.08,2.28,-17.50
7120,11.75,-658.56,-41.75,10.06,1.09,-18.75
7130,30.50,-686.62,-46.94,6.02,-0.63,-19.15
7140,47.56,-716.56,-33.81,4.38,-1.51,-18.55
7150,53.63,-723.62,0.94,3.26,-0.45,-17.97
7160,42.56,-693.87,26.44,0.86,1.52,-14.56
7170,14.38,-617.75,37.81,-1.27,1.90,-12.06
7180,-17.75,-509.75,36.94,-3.70,1.38,-9.14
7190,-17.37,-399.62,28.87,-5.81,0.57,-8.00
7200,-11.31,-280.94,25.94,-6.97,1.30,-7.85
7210,-12.63,-161.81,26.25,-7.18,1.36,-8.33
7220,-14.19,-54.06,26.06,-6.66,1.61,-9.48
7230,-19.25,39.50,21.19,-5.97,2.59,-10.97
7240,-13.31,102.50,8.88,-5.99,2.84,-12.08
7250,-3.19,152.81,-5.75,-5.74,2.42,-12.90
7260,-4.06,207.37,-17.31,-5.34,2.08,-13.59
7270,-9.06,261.00,-22.37,-2.88,1.99,-15.63
7280,-17.62,310.31,-28.31,-2.43,2.34,-15.94
7290,-25.25,351.62,-42.31,-2.47,1.38,-16.27
7300,-17.37,376.00,-53.13,-2.53,0.02,-17.00
7310,-12.56,404.12,-46.31,-0.83,-0.96,-17.78
7320,-18.31,441.06,-28.12,0.54,-0.46,-17.68
7330,-35.38,488.81,-4.81,3.02,0.24,-16.85
7340,-55.31,547.81,17.62,5.53,0.88,-16.32
7350,-77.62,617.12,38.38,10.76,2.44,-14.78
7360,-89.50,673.87,54.19,13.62,3.37,-14.45
7370,-64.44,689.06,53.44,15.85,4.09,-14.49
7380,-13.13,662.69,37.44,17.06,4.05,-14.87
7390,37.88,617.62,15.88,16.96,2.98,-16.88
7400,59.13,580.87,3.44,17.48,2.30,-18.30
7410,47.13,553.00,-1.94,18.61,1.37,-17.96
7420,8.00,532.06,-7.44,18.97,1.54,-16.71
7430,-18.19,509.37,-10.44,19.19,3.17,-15.18
7440,-37.75,471.12,-15.75,19.11,3.96,-13.84
7450,-38.63,407.31,-27.25,18.36,3.51,-12.79
7460,-24.06,321.50,-42.94,16.04,2.12,-12.32
7470,-18.75,241.81,-47.88,15.21,1.45,-11.37
7480,-21.87,167.81,-41.06,14.70,1.05,-10.52
7490,-17.19,89.81,-25.12,14.98,0.92,-10.13
7500,-10.38,14.31,-6.19,17.08,1.59,-8.15
7510,-12.69,-40.75,5.75,17.90,2.38,-6.67
7520,-21.44,-68.06,10.00,18.50,3.00,-4.83
7530,-24.44,-76.06,8.44,19.55,3.40,-3.50
7540,-20.87,-60.00,1.06,18.71,3.68,-2.44
7550,-19.06,-22.44,-12.13,18.05,3.78,-2.58
7560,-18.06,15.88,-18.56,17.53,3.67,-3.37
7570,-8.75,35.81,-20.75,16.84,3.22,-4.39
7580,-0.88,40.06,-21.50,14.75,1.86,-6.41
7590,8.81,22.87,-15.69,14.17,1.17,-7.54
7600,20.12,-15.31,-1.94,14.12,1.29,-8.70
7610,27.37,-65.75,13.50,14.11,0.93,-9.40
7620,33.56,-127.87,27.62,15.33,1.27,-11.12
7630,36.06,-190.31,42.44,15.52,1.75,-11.88
7640,34.63,-255.87,51.38,16.01,1.82,-12.97
7650,45.06,-334.62,60.13,17.02,2.01,-14.82
7660,56.25,-412.31,69.56,18.82,2.87,-16.67
7670,58.94,-481.75,70.62,18.90,2.94,-17.64
7680,54.25,-545.94,63.19,18.84,2.92,-17.99
7690,55.75,-610.06,54.31,18.56,2.94,-19.11
7700,53.69,-658.81,47.56,18.50,2.93,-18.62
7710,41.56,-680.44,40.38,17.46,3.45,-18.41
7720,16.00,-673.87,27.50,16.31,3.35,-17.78
7730,-7.00,-657.87,4.56,12.09,2.19,-15.70
7740,-14.00,-631.44,-19.69,9.07,1.42,-14.93
7750,-22.25,-583.00,-36.63,5.94,0.74,-14.12
7760,-26.06,-522.50,-44.56,1.53,-0.57,-12.89
7770,-12.06,-461.56,-34.44,-1.08,-1.15,-12.45
7780,7.06,-395.94,-8.88,-2.19,-0.88,-12.51
7790,9.25,-315.50,11.38,-2.48,-0.34,-12.50
7800,-0.06,-231.31,28.44,-2.22,0.92,-12.61
7810,-7.00,-159.25,35.44,-1.73,2.78,-13.36
7820,-6.00,-97.69,29.94,-1.67,3.30,-13.75
7830,-3.12,-46.94,15.94,-2.10,3.11,-13.96
7840,-0.25,-2.56,-3.00,-2.53,2.53,-14.20
7850,1.06,43.38,-18.25,-3.68,1.13,-15.25
7860,3.00,84.00,-28.06,-4.04,0.39,-16.07
7870,8.88,113.00,-29.62,-3.92,0.10,-16.91
7880,11.81,134.44,-24.12,-3.33,0.13,-17.67
7890,13.00,144.06,-16.94,-1.68,1.46,-18.43
7900,5.62,149.19,-11.31,-1.12,1.81,-18.28
7910,-5.31,163.37,-12.94,-0.68,2.16,-17.63
7920,-15.25,190.12,-16.25,0.28,2.15,-16.91
7930,-25.12,232.81,-21.00,1.80,1.42,-15.28
7940,-35.44,292.50,-26.69,3.11,0.93,-14.97
7950,-45.94,370.50,-30.37,4.75,0.62,-14.79
7960,-62.19,457.31,-31.62,6.63,0.26,-13.60
7970,-73.94,548.94,-30.75,8.32,-0.40,-12.58
7980,-78.87,642.69,-15.69,11.21,0.05,-12.35
7990,-83.31,738.81,18.44,14.97,1.37,-11.82
8000,-67.56,790.81,46.81,19.77,3.31,-13.57
8010,-17.06,781.56,55.81,21.24,4.31,-14.67
8020,11.56,757.12,50.69,23.05,5.05,-14.44
8030,7.56,731.69,35.44,23.94,5.16,-14.23
8040,6.69,688.19,10.25,21.92,3.88,-14.91
8050,7.37,618.56,-22.56,19.53,2.16,-15.61
8060,19.50,515.75,-45.81,18.32,0.99,-16.15
8070,18.56,398.56,-45.75,17.17,0.74,-16.14
8080,3.69,276.69,-38.13,16.12,0.71,-14.53
8090,-11.38,148.25,-26.94,16.41,0.78,-12.57
8100,-21.19,23.19,-16.00,16.89,1.34,-10.01
8110,-32.19,-72.06,-7.81,17.33,1.78,-7.21
8120,-37.94,-133.81,-3.19,17.58,1.63,-2.12
8130,-34.50,-162.69,-0.56,17.91,1.66,-0.92
8140,-24.62,-154.31,6.56,18.40,2.34,-0.50
8150,-19.25,-117.25,12.25,19.02,2.95,-0.52
8160,-11.69,-75.62,8.13,18.22,2.68,-2.71
8170,-4.44,-42.50,-0.25,17.82,2.33,-4.40
8180,-1.00,-23.31,-3.69,17.31,1.92,-6.18
8190,1.62,-25.31,-5.62,16.33,1.53,-8.09
8200,3.31,-58.81,-8.13,13.63,0.27,-11.41
8210,7.62,-127.19,-1.19,13.90,1.28,-12.82
8220,6.12,-215.62,22.94,15.93,2.14,-13.19
8230,4.25,-307.94,44.06,17.73,2.66,-13.47
8240,5.19,-383.25,51.75,19.41,3.28,-13.02
8250,3.69,-443.87,46.19,19.52,2.97,-13.68
8260,10.50,-496.06,35.13,19.26,3.22,-14.59
8270,12.13,-532.00,23.37,18.05,2.65,-15.22
8280,10.94,-560.50,16.56,16.88,1.88,-15.20
8290,7.50,-574.06,22.25,16.39,2.63,-15.40
8300,6.31,-582.06,24.25,15.69,3.01,-15.96
8310,18.00,-601.94,15.38,13.10,2.70,-17.73
8320,35.38,-631.25,5.25,11.58,2.62,-18.51
8330,40.50,-644.81,3.87,10.18,2.60,-18.31
8340,22.75,-623.25,4.75,8.29,2.52,-17.23
8350,-10.44,-560.44,1.94,4.19,1.47,-13.26
8360,-41.56,-470.31,-0.31,2.37,1.42,-11.66
8370,-47.56,-382.56,2.00,0.94,1.77,-11.31
8380,-29.94,-307.25,3.12,0.27,2.24,-11.53
8390,-16.31,-232.00,-2.12,-1.69,1.92,-11.95
8400,-8.88,-158.75,-14.00,-3.16,1.26,-12.16
8410,0.50,-92.50,-20.37,-4.02,0.74,-12.55
8420,6.37,-27.56,-15.06,-4.07,0.77,-13.07
8430,7.44,36.25,-5.37,-2.86,1.84,-15.59
8440,11.00,82.62,0.00,-1.90,2.36,-17.14
8450,14.31,103.87,-1.62,-1.69,2.64,-17.95
8460,15.63,105.00,-10.31,-1.91,2.29,-18.49
8470,15.38,99.44,-15.50,-1.72,1.98,-18.64
8480,10.75,97.81,-14.19,-1.06,1.98,-18.58
8490,7.44,100.94,-14.38,-0.26,2.11,-18.29
8500,-1.19,115.56,-20.81,-0.03,2.10,-17.48
8510,-14.19,146.69,-26.69,0.58,2.18,-15.52
8520,-22.06,190.50,-31.19,0.96,1.86,-14.68
8530,-32.13,255.00,-30.69,1.58,1.37,-13.56
8540,-43.75,340.06,-21.94,3.05,1.03,-12.79
8550,-52.25,440.25,-8.00,7.46,1.52,-12.77
8560,-57.38,538.06,1.00,9.43,1.10,-12.46
8570,-53.38,624.00,6.25,11.80,0.89,-12.38
8580,-48.06,706.87,19.00,17.25,1.62,-12.61
8590,-41.06,787.87,39.69,20.33,2.77,-11.81
8600,-29.81,835.50,54.25,22.44,3.99,-12.26
8610,3.37,825.87,49.81,24.06,4.65,-13.53
8620,21.81,786.00,25.75,23.02,4.47,-16.30
8630,36.63,719.25,-5.12,21.21,3.49,-16.77
8640,44.69,620.87,-28.25,19.73,1.93,-17.61
8650,45.69,499.75,-31.87,18.70,1.97,-18.18
8660,27.87,369.62,-27.06,17.83,1.58,-17.50
8670,-1.12,227.75,-29.44,16.58,1.41,-15.42
8680,-25.87,92.69,-31.50,15.78,1.07,-12.50
8690,-36.75,-32.63,-24.37,15.59,0.66,-9.46
8700,-27.25,-139.75,-11.19,17.17,1.05,-4.53
8710,-16.62,-198.69,6.25,18.33,1.96,-2.79
8720,-17.75,-200.37,18.19,19.09,2.55,-1.90
8730,-22.94,-165.44,19.19,19.38,2.99,-1.37
8740,-23.00,-118.06,12.63,18.66,3.08,-1.64
8750,-14.56,-75.62,1.81,17.49,2.41,-3.06
8760,-9.00,-39.00,-5.31,16.65,2.06,-4.46
8770,-7.44,-20.81,-6.31,15.46,1.22,-6.22
8780,3.31,-39.31,-2.81,14.77,0.77,-9.91
8790,16.87,-86.00,11.31,14.90,1.06,-11.87
8800,28.81,-158.31,24.87,14.93,1.41,-13.73
8810,43.31,-254.94,39.25,14.94,2.04,-16.17
8820,59.94,-379.81,55.06,17.27,2.05,-18.86
8830,80.62,-518.44,71.75,19.17,2.05,-19.58
8840,90.56,-637.94,82.62,20.65,2.09,-20.24
8850,84.19,-718.94,82.81,21.67,3.74,-20.07
8860,63.56,-773.50,71.81,21.05,3.45,-20.39
8870,40.69,-802.81,53.38,19.47,2.62,-20.02
8880,14.06,-805.00,31.75,16.78,1.71,-19.40
8890,-11.81,-775.12,13.31,11.29,0.02,-17.28
8900,-40.94,-725.56,2.44,8.28,-0.20,-16.30
8910,-56.31,-676.87,5.25,5.31,-0.75,-15.02
8920,-53.00,-635.50,19.19,3.44,-0.33,-13.55
8930,-41.19,-584.69,35.50,1.54,1.81,-10.81
8940,-42.50,-503.75,39.50,-0.58,2.41,-9.01
8950,-35.94,-409.87,30.44,-2.73,2.42,-8.46
8960,-22.75,-307.06,16.00,-4.12,2.30,-7.99
8970,-16.94,-194.37,2.56,-6.45,1.57,-8.19
8980,-9.13,-81.69,-7.19,-6.85,1.20,-8.89
8990,-7.69,27.69,-9.13,-6.13,1.60,-10.01
9000,-0.56,115.56,-8.38,-4.90,1.76,-12.38
9010,6.62,175.00,-13.50,-3.47,2.63,-15.79
9020,12.25,201.31,-25.37,-3.40,2.44,-16.84
9030,16.37,209.12,-39.81,-3.10,2.18,-17.51
9040,15.88,214.56,-50.06,-2.53,1.98,-18.11
9050,11.63,220.25,-58.81,-3.21,1.12,-18.38
9060,7.81,224.37,-63.25,-3.01,0.53,-17.66
9070,-1.62,242.00,-58.38,-2.74,0.11,-17.02
9080,-11.25,278.00,-48.00,-2.11,-0.47,-16.40
9090,-28.87,341.75,-30.81,0.12,-0.52,-15.20
9100,-52.94,424.25,-6.00,3.05,0.28,-14.54
9110,-72.25,512.19,17.50,6.58,1.63,-14.33
9120,-82.50,587.94,30.25,10.05,2.91,-13.54
9130,-75.00,643.00,28.00,13.59,2.27,-12.52
9140,-61.88,702.81,25.94,15.80,2.17,-11.55
9150,-42.25,757.31,25.44,18.73,1.85,-11.25
9160,-9.81,795.94,27.81,21.67,1.99,-12.68
9170,25.69,805.87,26.37,22.63,2.19,-13.91
9180,53.50,793.31,27.56,23.92,3.11,-15.85
9190,32.38,778.12,23.75,25.15,3.71,-15.46
9200,13.81,724.31,6.31,23.48,4.10,-16.82
9210,13.31,628.19,-21.37,21.34,2.89,-16.24
9220,11.63,505.50,-47.56,18.65,1.88,-16.32
9230,12.81,360.31,-56.81,16.42,1.58,-16.25
9240,-1.12,206.19,-52.63,13.72,-0.45,-13.77
9250,-11.63,47.94,-36.06,14.20,-0.95,-11.42
9260,-15.25,-98.50,-9.13,15.98,-0.41,-8.62
9270,-16.31,-203.31,15.81,18.12,0.91,-6.18
9280,-21.00,-252.56,27.87,20.38,2.38,-2.41
9290,-31.75,-249.44,26.19,20.45,2.62,-1.34
9300,-39.63,-216.25,15.56,19.95,2.81,-1.49
9310,-35.50,-176.25,2.31,19.31,2.37,-2.07
9320,-28.81,-142.25,-9.31,16.73,1.35,-5.03
9330,-21.75,-125.19,-16.94,15.58,0.84,-7.03
9340,-10.56,-140.75,-15.19,14.37,1.87,-9.24
9350,0.94,-190.00,0.75,14.84,2.46,-10.58
9360,14.75,-266.25,20.69,16.76,2.92,-12.01
9370,32.38,-345.50,31.69,16.92,1.96,-12.30
9380,50.13,-416.25,35.75,17.19,1.98,-13.41
9390,58.63,-461.75,45.38,18.98,2.86,-13.78
9400,49.44,-478.87,47.75,18.75,3.38,-14.00
9410,30.62,-472.50,37.13,17.77,3.45,-14.00
9420,19.25,-467.12,17.56,16.24,3.21,-14.80
9430,17.81,-467.37,0.69,13.78,1.98,-15.66
9440,19.25,-480.50,-11.31,12.14,1.33,-16.49
9450,35.19,-510.00,-17.25,10.48,0.90,-17.55
9460,54.19,-534.81,-12.81,8.80,0.37,-18.25
9470,50.75,-532.69,2.19,7.67,0.76,-17.12
9480,28.19,-500.44,20.06,7.06,1.30,-16.50
9490,4.19,-448.87,28.50,6.32,2.04,-15.62
9500,4.19,-448.87,28.50,5.49,2.53,-15.02
9510,-23.37,-333.87,8.00,2.13,1.63,-14.19
9520,-17.00,-289.25,-13.63,-0.05,0.37,-14.18
9530,6.50,-258.06,-24.06,-1.53,-0.30,-14.37
9540,27.31,-228.00,-19.25,-2.56,-0.47,-14.21
9550,27.62,-177.19,-5.56,-2.57,0.26,-13.27
9560,14.25,-101.25,6.62,-2.39,0.57,-13.08
9570,0.37,-17.62,11.44,-2.04,1.09,-13.54
9580,-4.00,53.19,11.31,-1.27,1.74,-14.37
9590,-1.75,102.37,6.37,-0.13,1.79,-15.74
9600,-1.75,102.37,6.37,0.92,1.76,-15.98
9610,0.19,140.44,-2.50,1.40,2.56,-15.58
9620,-9.75,224.44,-26.00,2.68,2.56,-15.35
9630,-24.44,290.69,-39.44,3.98,1.56,-13.78
9640,-44.38,381.00,-52.69,5.16,0.53,-12.86
9650,-44.38,381.00,-52.69,6.20,-0.21,-12.23
9660,-62.13,489.06,-55.63,8.72,-0.27,-11.94
9670,-84.12,714.00,-17.37,13.37,0.39,-12.58
9680,-73.25,789.00,13.69,16.96,1.19,-12.63
9690,-55.75,839.19,45.19,20.64,2.77,-13.04
9700,-55.75,839.19,45.19,24.89,6.05,-14.98
9710,-36.88,853.75,58.69,24.98,5.27,-15.32
9720,15.00,753.87,-8.06,23.15,4.28,-15.93
9730,42.56,658.06,-45.38,21.11,2.34,-16.66
9740,45.63,561.19,-56.19,18.81,1.49,-17.91
9750,45.63,561.19,-56.19,18.31,2.23,-17.41
9760,24.44,462.00,-48.38,17.76,2.11,-16.31
9770,-11.94,198.69,-43.00,16.73,1.13,-14.72
9780,-22.75,61.63,-41.69,16.00,0.49,-9.53
9790,-33.75,-45.63,-28.56,16.82,1.13,-6.86
9800,-33.75,-45.63,-28.56,17.34,1.42,-4.61
9810,-32.38,-125.69,-14.25,17.42,1.19,-3.00
9820,-24.00,-167.69,1.56,18.92,2.25,-0.47
9830,-25.62,-131.87,7.50,19.16,2.83,-0.19
9840,-17.94,-84.94,4.62,19.31,3.53,-0.79
9850,-17.94,-84.94,4.62,19.17,3.65,-1.51
9860,-13.75,-30.87,-1.19,17.51,2.82,-4.32
9870,-3.19,34.06,-13.31,16.98,2.54,-5.76
9880,0.88,31.81,-10.56,16.42,2.47,-7.17
9890,3.94,2.69,-8.94,15.76,1.99,-8.35
9900,3.94,2.69,-8.94,13.97,0.43,-10.15
9910,6.37,-50.06,-6.87,13.27,0.89,-11.96
9920,25.87,-217.69,16.75,13.71,1.46,-13.67
9930,48.75,-336.06,48.63,15.51,1.91,-15.44
9940,77.56,-463.37,77.31,19.04,2.18,-17.16
9950,77.56,-463.37,77.31,20.60,2.64,-17.45
9960,94.62,-576.12,94.44,21.11,3.56,-17.90
9970,69.31,-676.56,93.75,21.21,4.51,-16.31
9980,33.31,-673.25,78.25,20.20,4.03,-16.03
9990,8.44,-658.62,52.19,18.41,3.32,-16.16
10000,8.44,-658.62,52.19,16.04,2.42,-15.82
10010,-6.25,-632.81,20.37,10.87,1.22,-16.19
10020,17.12,-608.50,-26.37,8.46,0.60,-15.99
10030,20.44,-587.87,-28.31,6.41,0.57,-15.54
10040,20.37,-559.37,-19.94,4.04,0.05,-14.74
10050,20.37,-559.37,-19.94,2.31,0.83,-12.74
10060,14.88,-512.94,-5.37,1.36,1.29,-12.17
10070,3.44,-367.44,12.50,-0.17,1.55,-11.14
10080,-10.88,-263.62,5.87,-1.34,1.34,-10.34
10090,-18.25,-155.00,-1.19,-3.00,0.56,-9.70
10100,-18.25,-155.00,-1.19,-3.00,0.56,-9.70
10110,-12.13,-54.44,-7.06,-3.07,0.32,-11.01
10120,12.75,96.37,-11.25,-2.58,0.59,-14.83
10130,20.75,134.12,-12.25,-1.24,1.56,-17.96
10140,23.06,151.56,-13.81,-0.85,1.88,-18.68
10150,23.06,151.56,-13.81,-0.85,1.88,-18.68
10160,17.44,158.81,-21.69,-0.13,1.76,-19.25
10170,-6.81,180.62,-40.31,0.01,1.24,-18.55
10180,-24.37,205.94,-44.63,0.47,0.42,-17.82
10190,-43.88,245.44,-44.13,0.92,-0.22,-16.76
10200,-43.88,245.44,-44.13,0.92,-0.22,-16.76
10210,-67.19,305.50,-36.00,1.53,-0.40,-15.36
10220,-113.37,487.69,-2.87,7.85,1.69,-12.25
10230,-127.31,582.87,9.50,10.29,1.80,-11.30
10240,-135.87,684.37,25.87,16.28,3.26,-10.14
10250,-135.87,684.37,25.87,16.28,3.26,-10.14
10260,-122.19,757.19,31.00,18.47,3.54,-10.39
10270,-12.00,777.25,8.69,22.18,3.23,-12.61
10280,27.25,756.31,-7.00,22.31,2.66,-16.31
10290,41.69,726.12,-17.56,22.00,3.17,-17.05
10300,41.69,726.12,-17.56,22.00,3.17,-17.05
10310,32.56,675.06,-24.25,20.99,3.39,-17.23
10320,28.56,439.44,-42.56,15.90,2.10,-17.99
10330,13.50,291.87,-43.44,14.93,1.46,-16.68
10340,-4.62,141.06,-31.62,14.64,1.14,-15.03
10350,-4.62,141.06,-31.62,14.64,1.14,-15.03
10360,-14.63,-5.44,-14.00,14.97,1.23,-12.75
10370,-18.00,-129.31,3.75,16.90,1.61,-5.93
10380,-18.50,-214.00,18.87,17.94,2.13,-4.67
10390,-19.75,-253.50,32.88,18.84,2.33,-3.96
10400,-18.19,-259.19,40.38,18.84,2.33,-3.96
10410,-7.62,-248.87,36.19,19.14,3.08,-4.42
10420,2.62,-194.31,15.88,17.42,4.11,-6.93
10430,2.62,-194.31,15.88,16.73,3.53,-7.83
10440,2.44,-181.94,2.37,15.66,2.62,-9.93
10450,8.50,-189.19,-2.25,15.66,2.62,-9.93
10460,26.37,-207.87,4.69,15.66,2.79,-11.22
10470,41.00,-239.50,11.00,14.23,2.17,-14.39
10480,59.94,-287.12,16.19,14.58,1.83,-16.17
10490,67.81,-336.69,27.44,14.54,1.80,-17.27
10500,74.50,-397.00,36.81,14.54,1.80,-17.27
10510,84.25,-456.06,45.00,14.82,2.23,-18.11
10520,75.81,-498.06,50.19,14.20,2.51,-17.02
10530,62.69,-516.50,48.00,13.11,2.36,-16.45
10540,37.44,-497.37,42.88,11.61,2.05,-15.53
10550,1.56,-444.62,35.44,11.61,2.05,-15.53
10560,-29.62,-376.87,23.87,8.78,1.19,-13.37
10570,-49.88,-310.06,14.31,6.22,1.23,-12.72
10580,-38.75,-271.31,9.06,5.46,1.42,-12.89
10590,-7.37,-243.87,8.75,5.14,1.91,-12.70
10600,5.75,-195.25,10.81,5.14,1.91,-12.70
10610,3.94,-124.94,12.19,5.14,2.41,-12.94
10620,0.88,-48.19,8.25,5.22,2.44,-14.15
10630,-2.19,30.25,-3.31,4.46,1.30,-16.45
10640,-4.12,101.56,-15.94,4.29,0.71,-17.60
10650,-5.50,154.69,-20.50,4.29,0.71,-17.60
10660,-2.62,180.19,-17.56,5.30,0.48,-18.84
10670,-1.06,182.50,-11.75,5.88,1.74,-20.42
10680,-4.37,166.69,-12.44,5.81,1.33,-20.67
10690,-2.94,129.69,-15.81,5.75,1.00,-20.58
10700,4.81,78.50,-18.12,5.75,1.00,-20.58
10710,3.94,37.69,-15.56,5.86,0.78,-20.33
10720,-3.00,11.94,-10.94,5.94,1.02,-19.14
10730,-6.62,-8.75,-7.00,6.33,1.32,-18.41
10740,-10.13,-26.87,-2.37,6.48,1.58,-17.41
10750,-12.50,-40.94,0.37,6.48,1.58,-17.41
10760,-14.75,-41.31,-0.75,5.87,1.28,-15.50
10770,-15.13,-24.12,0.19,5.80,0.76,-15.72
10780,-12.81,3.06,3.56,5.84,0.73,-15.97
10790,-16.44,35.69,8.13,6.17,0.71,-16.87
10800,-17.69,60.81,12.88,6.17,0.71,-16.87
10810,-14.06,71.12,17.06,6.59,0.97,-17.40
10820,-10.88,72.81,19.56,8.81,2.99,-17.70
10830,-13.31,72.87,18.37,8.60,2.92,-17.41
10840,-15.88,68.44,6.75,8.35,2.80,-17.04
10850,-11.50,55.31,-7.44,8.35,2.80,-17.04
10860,-0.88,35.88,-17.44,7.54,2.04,-16.95
10870,8.25,20.25,-19.56,6.97,1.14,-17.12
10880,9.88,15.63,-13.50,7.15,1.13,-17.30
10890,10.56,13.44,-6.25,7.90,1.43,-17.25
10900,8.19,12.19,-0.37,7.90,1.43,-17.25
10910,4.19,15.00,0.56,8.79,2.47,-17.00
10920,-0.25,20.25,-5.69,7.75,1.23,-16.53
10930,0.94,22.44,-17.62,7.16,0.91,-16.55
10940,4.25,24.81,-22.12,7.36,1.17,-17.74
10950,5.00,31.81,-16.31,7.36,1.17,-17.74
10960,-2.25,38.56,-8.06,7.72,1.52,-17.96
10970,-8.63,30.75,-3.69,7.70,1.58,-17.41
10980,-9.31,9.69,-3.94,8.41,2.49,-17.12
10990,-10.94,-4.87,-4.31,9.05,1.98,-16.19
11000,-72.44,49.13,5.75,9.05,1.98,-16.19
11010,-54.63,37.75,-1.19,7.43,1.07,-15.96
11020,-6.50,-6.00,-6.25,5.52,-1.30,-15.83
11030,10.13,-28.00,2.50,7.68,1.50,-16.10
11040,19.50,-38.25,16.94,10.21,3.99,-16.09
11050,17.12,-29.56,36.38,10.21,3.99,-16.09
11060,24.06,-31.31,27.25,11.27,4.70,-15.73
11070,22.62,-18.94,-0.56,9.53,-2.30,-4.22
11080,-2.81,31.06,-15.75,9.13,5.72,-16.29
11090,-42.75,179.25,28.81,9.33,1.92,-19.54
11100,47.81,152.81,-6.19,9.33,1.92,-19.54
11110,26.75,94.19,-3.50,10.06,2.07,-16.53
11120,13.81,66.56,9.25,8.97,1.55,-19.79
11130,15.94,48.63,6.75,8.55,0.82,-17.76
11140,2.31,33.94,3.44,9.35,1.52,-17.16
11150,1.12,18.25,2.00,9.35,1.52,-17.16
11160,-6.87,11.00,7.56,10.03,1.63,-15.48
11170,-12.88,17.44,9.88,10.74,2.03,-15.36
11180,-19.62,29.87,10.81,11.26,3.45,-14.94
11190,-24.44,36.56,12.13,7.84,1.09,-17.78
11200,-11.31,33.44,0.13,7.84,1.09,-17.78
11210,22.06,-16.44,1.00,-2.71,-7.17,-18.22
11220,105.19,-175.25,73.00,11.60,3.81,-17.29
11230,117.56,-237.12,124.87,13.28,5.25,-16.72
11240,94.12,-226.12,109.81,13.12,4.86,-14.12
11250,40.31,-161.06,79.00,13.12,4.86,-14.12
11260,25.25,-90.75,39.56,10.63,0.37,-11.19
11270,26.81,20.44,15.31,6.29,1.32,-18.57
11280,-130.87,63.25,0.44,5.78,0.28,-21.51
11290,-43.25,-5.00,3.00,4.57,-0.97,-22.96
11300,27.44,-79.94,5.12,4.57,-0.97,-22.96
11310,18.31,-143.94,16.00,3.31,-0.04,-22.73
11320,55.50,-214.19,42.63,4.89,0.44,-21.13
11330,134.44,-257.12,79.19,6.55,0.00,-12.03
11340,85.50,-235.87,91.12,7.47,0.47,-14.71
11350,36.31,-163.81,84.69,7.47,0.47,-14.71
