timestamp,gyrox,gyroy,gyroz,accx,accy,accz
10,-3.19,-78.12,-16.56,0.00,0.00,0.00
20,-1.00,-77.94,-21.00,0.00,0.00,0.00
30,-7.44,-69.75,-28.94,0.00,0.00,0.00
40,-11.94,-63.13,-25.56,1.04,0.15,-18.35
50,-17.12,-59.06,-21.00,1.15,0.76,-18.27
60,-21.81,-56.75,-20.12,0.86,0.97,-18.02
70,-23.06,-55.38,-17.87,0.77,1.15,-17.49
80,-23.50,-53.69,-17.81,0.65,1.19,-17.15
90,-23.00,-51.63,-18.06,0.20,1.19,-16.85
100,-20.44,-50.63,-17.37,0.01,1.22,-16.48
110,-14.94,-50.19,-14.00,-0.63,0.63,-16.04
120,-10.38,-47.63,-8.50,-0.66,0.71,-16.01
130,-8.25,-43.75,-5.00,-0.83,0.58,-16.05
140,-8.44,-39.06,-1.81,-0.88,0.71,-16.03
150,-7.00,-36.13,-0.19,-1.09,1.27,-15.73
160,-5.81,-35.00,-0.56,-1.25,1.16,-15.44
170,-4.37,-33.63,0.00,-1.75,0.76,-14.68
180,-5.00,-25.31,2.87,-1.79,0.76,-13.87
190,-5.00,-12.00,5.37,-1.99,0.56,-13.56
200,0.75,0.75,10.69,-2.03,0.42,-13.55
210,6.44,13.25,17.44,-1.90,0.70,-13.94
220,9.56,21.19,21.19,-1.45,1.59,-14.85
230,9.00,25.31,22.25,-1.40,1.84,-15.07
240,8.81,29.00,23.00,-1.04,2.32,-15.32
250,4.81,35.31,20.62,-0.60,2.62,-15.84
260,-0.25,43.31,14.69,0.23,3.28,-16.34
270,-2.75,51.31,4.69,0.39,3.19,-16.35
280,-6.12,60.88,-3.19,0.36,2.41,-17.09
290,-5.94,69.56,-5.12,0.37,1.90,-17.04
300,-3.25,74.56,-7.31,0.55,0.58,-18.66
310,-2.31,75.50,-3.19,0.71,0.70,-18.38
320,7.87,70.87,1.12,0.85,0.52,-19.48
330,11.69,64.19,7.62,1.16,0.34,-19.85
340,17.31,54.56,16.31,0.74,-0.42,-20.37
350,23.19,42.38,33.00,1.16,0.42,-20.48
360,34.31,28.19,40.38,1.77,1.38,-20.49
370,38.31,23.75,35.38,2.24,1.94,-20.52
380,32.31,28.87,27.06,2.10,1.73,-20.16
390,31.56,36.81,20.81,2.06,1.18,-20.44
400,31.87,44.81,18.31,1.93,0.81,-20.61
410,32.38,52.75,18.75,2.29,0.79,-21.32
420,25.62,57.75,15.50,3.22,1.35,-23.11
430,14.06,55.63,9.06,3.19,1.55,-23.68
440,6.62,46.13,2.62,3.21,1.76,-23.85
450,6.37,33.31,-4.50,3.18,0.74,-23.86
460,10.56,21.31,-8.00,2.95,-0.09,-23.65
470,15.13,15.06,-4.44,3.08,-0.29,-23.48
480,19.31,15.38,-1.00,3.43,0.00,-23.58
490,21.44,20.37,-1.37,4.30,0.41,-24.66
500,16.87,28.69,-4.50,4.43,0.31,-25.53
510,9.94,27.81,-7.69,4.40,0.43,-26.04
520,6.62,11.88,-10.44,4.61,0.81,-26.71
530,3.12,-7.94,-17.87,4.51,0.64,-25.88
540,3.12,-25.31,-23.19,4.14,0.19,-25.07
550,2.12,-35.44,-25.44,4.12,0.18,-24.21
560,-1.87,-38.06,-28.06,3.83,0.00,-23.55
570,-6.06,-38.56,-24.44,2.98,-0.65,-22.66
580,-9.63,-41.75,-17.06,2.98,-0.03,-22.40
590,-13.81,-49.38,-18.06,3.44,1.22,-22.22
600,-22.44,-57.13,-29.12,2.90,1.23,-21.40
610,-24.56,-63.75,-29.69,1.76,-0.01,-19.76
620,-22.44,-67.94,-25.37,2.03,0.81,-18.98
630,-22.44,-67.94,-25.37,1.74,0.61,-19.53
640,-25.50,-61.00,-27.37,1.28,0.60,-17.85
650,-17.62,-57.69,-28.44,1.25,0.50,-17.97
660,-16.87,-51.38,-28.94,0.84,0.08,-17.67
670,-14.13,-45.38,-24.12,0.44,-0.16,-17.54
680,-8.69,-44.19,-16.87,0.28,-0.04,-17.57
690,-1.19,-47.00,-11.13,0.24,0.16,-17.36
700,1.25,-46.69,-7.44,0.30,0.60,-17.21
710,-1.50,-43.69,-6.19,0.01,0.61,-17.06
720,-8.00,-40.44,-5.00,-0.12,0.80,-17.10
730,-8.00,-40.44,-5.00,-0.07,1.34,-17.22
740,-31.81,-37.31,-12.38,-0.33,1.12,-16.94
750,-37.56,-38.75,-14.31,-0.56,1.10,-16.56
760,-38.19,-39.88,-14.00,-1.17,0.20,-15.21
770,-28.44,-39.13,-9.38,-1.67,-0.44,-14.68
780,-28.44,-39.13,-9.38,-1.60,-0.40,-14.40
790,-12.44,-34.00,2.69,-1.25,0.22,-14.33
800,12.13,-17.87,21.06,-1.10,1.11,-14.49
810,15.81,-5.31,23.19,-1.08,1.48,-14.88
820,16.06,1.87,24.19,-1.01,1.81,-15.36
830,8.44,6.25,23.19,-0.80,2.29,-15.77
840,-1.62,9.69,18.44,-0.57,2.78,-15.55
850,-6.87,14.00,12.69,-0.58,2.57,-15.33
860,-6.81,21.44,9.56,-0.47,2.47,-15.15
870,-3.25,30.00,6.69,-0.29,2.35,-15.30
880,-3.25,30.00,6.69,-0.18,1.98,-15.96
890,0.56,38.50,3.44,-0.08,1.68,-16.56
900,5.19,48.25,2.12,0.16,1.46,-17.15
910,4.19,47.00,2.37,0.19,1.14,-17.54
920,3.62,42.38,5.50,0.17,0.90,-18.03
930,3.62,42.38,5.50,0.13,0.57,-18.15
940,3.37,37.50,9.06,0.13,0.59,-17.96
950,6.50,30.37,15.38,0.24,0.54,-18.00
960,12.25,29.75,20.12,0.31,0.18,-17.32
970,19.31,33.56,23.62,0.85,0.40,-18.04
980,19.31,33.56,23.62,1.19,0.99,-18.34
990,10.88,47.69,25.25,1.41,1.80,-19.23
1000,-5.94,61.63,30.87,1.03,1.36,-20.62
1010,-0.37,49.06,33.44,2.00,2.17,-21.32
1020,6.69,35.06,23.37,2.01,1.93,-21.14
1030,6.69,35.06,23.37,1.59,0.67,-20.30
1040,16.75,24.87,18.87,1.85,0.79,-20.30
1050,30.25,38.13,23.81,2.36,1.12,-20.86
1060,29.81,52.13,21.31,2.88,1.11,-21.72
1070,23.94,63.63,18.50,3.86,1.22,-24.21
1080,23.94,63.63,18.50,4.05,1.40,-25.11
1090,13.75,63.75,12.50,4.11,1.30,-25.46
1100,2.87,35.88,-2.69,4.02,0.94,-25.52
1110,2.81,18.75,-4.31,3.91,0.36,-24.70
1120,3.44,8.75,-3.31,3.69,0.50,-24.00
1130,3.44,8.75,-3.31,3.67,0.55,-23.81
1140,9.25,5.06,-2.62,3.89,0.73,-24.08
1150,9.75,2.25,-3.50,3.93,0.57,-24.82
1160,-0.25,-0.13,-4.75,4.09,0.84,-25.24
1170,-11.31,-6.50,-7.56,4.10,1.06,-25.41
1180,-11.31,-6.50,-7.56,4.05,1.33,-25.19
1190,-17.12,-18.19,-11.13,4.20,1.85,-23.92
1200,-13.81,-31.87,-23.87,3.85,1.44,-23.17
1210,-9.00,-27.44,-27.87,3.69,1.16,-22.75
1220,-5.75,-23.50,-32.69,3.72,1.21,-22.53
1230,-5.75,-23.50,-32.69,2.47,0.27,-22.14
1240,-2.00,-23.62,-37.19,2.03,-0.28,-22.21
1250,6.06,-41.75,-17.87,1.96,-0.02,-22.22
1260,4.87,-53.88,-12.13,2.33,0.70,-22.03
1270,-2.25,-63.94,-23.06,2.13,0.97,-20.79
1280,-2.25,-63.94,-23.06,2.13,0.97,-20.79
1290,-4.75,-70.00,-26.81,1.50,0.36,-19.90
1300,-8.38,-63.19,-16.19,1.37,0.70,-18.98
1310,-8.88,-55.19,-23.56,1.16,0.89,-19.05
1320,-11.56,-49.13,-23.94,0.66,0.74,-17.78
1330,-11.56,-49.13,-23.94,0.66,0.74,-17.78
1340,-3.87,-46.56,-22.94,0.92,0.95,-18.27
1350,8.00,-44.50,-25.62,-0.14,0.09,-17.96
1360,5.94,-46.44,-18.94,-0.32,0.09,-17.92
1370,-1.75,-49.69,-13.00,-0.30,0.25,-17.92
1380,-1.75,-49.69,-13.00,-0.30,0.25,-17.92
1390,-12.13,-53.31,-11.38,-0.38,0.78,-17.18
1400,-28.25,-51.31,-12.81,-0.61,1.02,-16.23
1410,-32.25,-43.50,-15.31,-0.90,0.96,-15.70
1420,-29.87,-33.88,-14.69,-1.24,0.69,-15.13
1430,-29.87,-33.88,-14.69,-1.24,0.69,-15.13
1440,-22.81,-26.37,-11.75,-1.33,0.71,-14.94
1450,-2.81,-16.06,-2.37,-1.83,-0.05,-14.70
1460,5.25,-13.31,7.44,-1.87,-0.06,-15.12
1470,6.31,-11.88,16.37,-1.74,0.49,-15.20
1480,6.31,-11.88,16.37,-1.74,0.49,-15.20
1490,4.25,-12.56,21.06,-1.56,1.03,-15.28
1500,2.00,-14.75,23.00,-1.30,1.75,-14.26
1510,3.12,-13.56,23.50,-1.22,1.72,-14.19
1520,0.25,-3.75,22.69,-1.05,1.90,-14.11
1530,-5.06,10.81,22.69,-1.05,1.90,-14.11
1540,-5.62,24.25,22.62,-0.86,2.26,-14.42
1550,-4.25,34.00,18.87,-0.57,2.95,-15.50
1560,-1.62,38.94,13.63,-0.35,2.87,-16.02
1570,1.37,41.56,10.19,-0.28,2.61,-16.20
1580,2.81,44.13,7.31,-0.28,2.61,-16.20
1590,4.94,46.44,7.12,-0.14,1.78,-16.67
1600,4.44,50.56,7.94,-0.04,1.57,-17.27
1610,0.37,54.69,9.31,0.27,1.66,-17.88
1620,-0.62,57.19,9.44,0.27,1.05,-18.33
1630,-0.88,57.50,8.81,0.27,1.05,-18.33
1640,7.06,53.06,9.56,0.32,0.80,-18.78
1650,13.38,47.88,13.38,0.60,1.06,-19.85
1660,19.69,43.69,19.06,0.40,0.23,-20.49
1670,17.62,43.31,23.44,1.07,1.28,-20.52
1680,11.00,46.38,32.38,1.07,1.28,-20.52
1690,7.06,48.13,25.44,1.83,1.99,-21.22
1700,0.37,49.69,3.75,1.23,-0.29,-21.42
1710,-8.31,53.38,-16.37,0.08,-1.83,-21.05
1720,-4.94,55.31,-3.50,0.81,-1.66,-21.68
1730,10.63,53.19,31.50,0.81,-1.66,-21.68
1740,30.37,52.38,32.06,4.04,1.92,-23.84
1750,15.81,56.44,13.00,3.05,0.54,-24.32
1760,10.56,57.00,10.38,3.41,1.16,-24.63
1770,10.19,52.06,18.19,4.16,1.97,-25.51
1780,18.12,37.50,19.25,4.16,1.97,-25.51
1790,22.69,21.00,15.44,5.14,1.46,-24.70
1800,46.13,49.88,14.19,6.39,3.04,-30.42
1810,38.63,78.56,3.87,3.59,1.61,-29.26
1820,-0.56,8.50,-13.69,3.19,0.97,-25.68
1830,-25.94,-66.50,-16.75,3.19,0.97,-25.68
1840,-31.25,-92.50,-16.06,3.88,1.52,-22.82
1850,-21.06,-81.37,-20.44,3.38,1.16,-19.40
1860,-16.44,-38.00,-21.94,3.64,1.75,-20.86
1870,-10.19,5.19,-21.25,3.77,2.11,-22.43
1880,2.31,23.69,-24.00,3.77,2.11,-22.43
1890,14.56,15.50,-25.75,3.32,1.56,-23.87
1900,17.56,-8.56,-23.44,3.30,0.41,-24.56
1910,15.88,-38.00,-22.12,3.63,1.05,-23.64
1920,6.50,-59.44,-30.37,2.21,-0.02,-20.65
1930,-5.19,-68.75,-34.81,2.21,-0.02,-20.65
1940,-8.31,-70.50,-33.19,1.64,-0.04,-19.51
1950,-2.37,-68.19,-29.56,1.60,0.04,-18.91
1960,-1.06,-58.75,-29.12,1.24,0.05,-18.70
1970,-2.87,-51.56,-27.31,0.82,-0.09,-18.73
1980,-2.44,-50.00,-24.50,0.82,-0.09,-18.73
1990,-3.50,-50.50,-16.00,0.42,-0.13,-18.42
2000,0.44,-52.56,-5.56,0.61,0.84,-18.46
2010,6.87,-54.75,-4.31,0.43,1.24,-16.76
2020,2.44,-50.75,-3.56,0.49,1.64,-17.02
2030,9.19,-48.00,-4.37,0.49,1.64,-17.02
2040,11.38,-43.13,-13.69,0.70,1.85,-16.98
2050,8.19,-37.56,-21.87,-0.47,0.61,-16.98
2060,3.37,-32.75,-21.87,-0.69,0.54,-16.34
2070,-4.19,-30.56,-19.44,-0.85,0.40,-16.35
2080,-7.81,-31.75,-18.44,-0.85,0.40,-16.35
2090,-14.13,-30.81,-16.00,-1.22,-0.07,-15.37
2100,-15.44,-25.94,-11.69,-1.39,-0.06,-14.77
2110,-13.50,-18.56,-6.25,-1.07,0.23,-14.74
2120,-11.88,-9.31,-3.06,-1.37,0.31,-14.71
2130,-7.37,-0.37,-0.25,-1.37,0.31,-14.71
2140,-0.13,4.87,4.37,-1.45,0.24,-15.02
2150,6.25,4.44,10.25,-1.24,0.80,-15.23
2160,10.38,1.94,14.50,-1.06,1.48,-15.11
2170,14.38,0.06,18.19,-0.97,1.46,-15.06
2180,14.19,1.62,18.31,-0.97,1.46,-15.06
2190,8.88,7.81,18.12,-0.96,1.30,-14.95
2200,3.06,16.87,18.94,-0.03,2.50,-15.66
2210,-3.06,27.69,17.25,0.24,2.63,-16.09
2220,-4.62,35.13,9.13,0.22,2.21,-16.06
2230,-4.87,42.69,0.13,0.22,2.21,-16.06
2240,-1.37,48.06,-2.75,-0.16,0.88,-16.86
2250,2.12,50.06,-0.50,0.02,0.03,-17.46
2260,5.12,49.06,1.81,-0.10,-0.47,-17.63
2270,5.31,49.19,6.50,0.17,-0.41,-18.33
2280,1.00,49.38,11.69,0.17,-0.41,-18.33
2290,-4.69,50.13,15.50,0.62,0.09,-18.71
2300,-10.56,52.88,18.87,1.52,1.33,-19.58
2310,-9.75,53.25,14.69,0.90,0.18,-19.68
2320,-2.94,50.56,12.38,0.94,-0.02,-19.81
2330,5.50,45.63,14.94,0.94,-0.02,-19.81
2340,13.25,39.25,19.37,1.24,-0.28,-20.17
2350,12.00,36.31,24.94,3.05,1.05,-21.90
2360,8.06,40.13,38.13,3.97,2.98,-22.95
2370,-6.37,46.50,26.94,3.15,2.15,-22.39
2380,-25.81,48.81,4.81,3.15,2.15,-22.39
2390,-28.19,47.44,4.81,2.47,1.30,-22.25
2400,-17.69,42.69,15.56,3.31,1.72,-21.66
2410,-17.69,42.69,15.56,3.70,1.27,-22.67
2420,19.56,45.88,9.50,3.70,1.27,-22.67
2430,21.62,52.88,9.69,3.83,0.81,-23.36
2440,18.75,52.75,12.69,4.51,1.44,-25.20
2450,18.75,52.75,12.69,4.71,2.00,-25.98
2460,15.31,20.75,8.94,4.96,2.25,-26.63
2470,4.00,0.44,-2.37,5.29,2.54,-27.00
2480,-6.75,-17.25,-11.38,4.42,1.15,-25.49
2490,-11.50,-28.25,-11.38,4.11,1.00,-24.51
2500,-11.50,-28.25,-11.38,4.16,1.29,-23.72
2510,-10.94,-31.37,-11.63,4.13,1.52,-23.21
2520,-8.25,-28.81,-16.44,3.65,0.78,-23.07
2530,-2.37,-26.81,-20.19,3.16,0.25,-23.42
2540,1.62,-34.50,-13.25,2.92,-0.10,-23.38
2550,1.62,-34.50,-13.25,2.97,0.24,-23.50
2560,0.56,-51.06,-5.81,3.04,1.00,-22.81
2570,-2.87,-56.56,-6.31,2.74,1.24,-21.90
2580,-3.00,-60.06,-8.69,2.53,1.42,-21.56
2590,-4.50,-60.25,-19.56,1.92,1.02,-19.84
2600,-4.50,-60.25,-19.56,1.37,0.34,-19.35
2610,-2.94,-57.19,-22.50,1.42,0.64,-18.94
2620,4.12,-44.56,-15.56,1.24,0.54,-18.93
2630,4.12,-44.56,-15.56,1.76,1.69,-18.76
2640,7.87,-36.63,-18.25,1.06,0.35,-19.52
2650,7.87,-36.63,-18.25,0.64,0.21,-18.84
2660,6.25,-42.44,-11.50,0.84,0.85,-18.80
2670,9.75,-49.69,-13.38,0.70,0.87,-18.18
2680,8.13,-52.38,-13.50,0.39,0.58,-17.75
2690,4.56,-49.63,-12.13,0.41,0.65,-17.30
2700,4.56,-49.63,-12.13,0.52,1.13,-16.84
2710,2.56,-43.19,-15.38,-0.42,0.13,-16.62
2720,-2.25,-29.25,-16.56,-0.83,-0.23,-16.39
2730,-3.25,-28.25,-11.31,-0.73,-0.20,-16.65
2740,-3.44,-32.50,-7.12,-1.03,-0.29,-16.31
2750,-3.44,-32.50,-7.12,-1.43,-0.45,-15.32
2760,4.12,-40.94,6.69,-1.38,-0.30,-14.86
2770,4.06,-35.44,11.25,-1.41,-0.14,-14.42
2780,0.44,-25.25,15.56,-1.45,0.10,-14.07
2790,-3.50,-10.69,17.56,-1.10,1.06,-13.51
2800,-3.50,-10.69,17.56,-1.01,1.48,-13.81
2810,-2.06,5.19,16.12,-1.06,1.39,-13.87
2820,-4.87,20.00,16.75,-0.84,1.70,-14.27
2830,1.12,26.00,14.50,-1.10,1.31,-15.01
2840,9.19,24.69,20.00,-0.78,1.46,-15.38
2850,9.19,24.69,20.00,-0.42,2.03,-15.79
2860,10.00,21.81,20.50,-0.07,2.04,-15.79
2870,11.00,19.12,17.31,0.08,1.81,-15.44
2880,8.56,21.19,13.00,0.05,1.29,-15.53
2890,-3.56,45.56,7.56,0.41,1.31,-15.92
2900,-3.56,45.56,7.56,0.66,1.30,-16.92
2910,-12.75,57.56,2.81,0.52,0.79,-17.42
2920,-13.81,60.38,-1.19,0.31,0.32,-17.57
2930,-13.81,60.38,-1.19,0.19,-0.46,-18.41
2940,-1.94,55.31,15.81,0.58,-0.43,-19.03
2950,-1.94,55.31,15.81,0.71,-0.20,-19.62
2960,3.62,52.56,21.25,1.21,0.15,-20.23
2970,2.19,50.25,25.44,1.50,1.00,-20.69
2980,-0.94,35.38,35.88,1.07,0.50,-21.11
2990,8.06,24.44,40.38,2.36,1.44,-21.75
3000,8.06,24.44,40.38,2.57,1.59,-21.48
3010,11.50,18.62,28.25,2.23,0.99,-21.15
3020,15.69,24.44,17.62,1.85,0.00,-21.59
3030,23.12,37.88,16.94,2.16,0.01,-22.52
3040,27.44,46.69,21.56,2.22,-0.06,-23.41
3050,27.44,46.69,21.56,1.98,-0.09,-24.42
3060,17.69,39.19,24.44,4.26,2.38,-25.68
3070,3.06,27.56,23.06,5.25,3.52,-26.19
3080,-15.38,17.44,-3.69,2.79,-0.08,-25.27
3090,6.81,-2.75,7.62,1.76,-1.23,-23.02
3100,6.81,-2.75,7.62,5.19,2.42,-25.08
3110,24.25,2.25,14.31,4.35,1.58,-24.99
3120,15.56,12.00,-1.62,3.81,0.84,-25.69
3130,13.25,14.00,-9.00,4.25,1.43,-26.98
3140,-6.44,-5.50,-16.44,4.36,1.63,-26.94
3150,-6.44,-5.50,-16.44,3.44,0.54,-26.03
3160,-14.94,-26.62,-27.75,2.80,-0.38,-24.80
3170,-9.50,-46.50,-26.44,2.80,-0.45,-23.13
3180,0.37,-54.69,-19.19,2.57,-0.38,-22.62
3190,9.94,-50.94,-12.00,2.40,-0.07,-22.29
3200,9.94,-50.94,-12.00,2.27,0.20,-22.14
3210,11.38,-49.25,-11.81,1.99,0.23,-21.80
3220,8.00,-51.13,-20.56,1.59,-0.08,-21.48
3230,-1.19,-54.25,-24.31,1.34,-0.07,-20.92
3240,-12.13,-63.50,-20.62,1.21,0.00,-20.48
3250,-12.13,-63.50,-20.62,1.43,0.83,-19.12
3260,-11.31,-66.94,-21.00,0.59,-0.32,-19.03
3270,-11.38,-66.19,-24.94,0.41,-0.08,-18.22
3280,-7.94,-65.50,-19.44,0.65,0.56,-18.25
3290,2.31,-65.50,-22.06,-0.01,0.44,-17.33
3300,2.31,-65.50,-22.06,-0.58,-0.21,-16.99
3310,7.00,-64.25,-22.06,-1.04,-0.95,-16.85
3320,13.00,-65.00,-15.81,-1.44,-0.89,-16.89
3330,12.81,-62.50,-5.50,-0.96,0.32,-16.11
3340,8.88,-63.38,-0.56,-1.11,-0.28,-16.44
3350,8.88,-63.38,-0.56,-1.27,-0.01,-15.36
3360,0.06,-56.88,0.62,-1.33,0.19,-15.51
3370,-10.63,-47.31,-2.37,-2.07,-0.14,-14.28
3380,-18.12,-38.19,-4.12,-2.32,-0.42,-13.90
3390,-12.75,-26.12,3.37,-2.62,-0.70,-13.30
3400,-12.75,-26.12,3.37,-2.55,-0.81,-13.21
3410,-6.81,-18.06,10.38,-2.56,-0.34,-12.69
3420,0.81,-10.50,17.62,-2.49,-0.21,-12.85
3430,9.06,-3.75,22.25,-2.30,0.18,-13.05
3440,6.06,16.87,30.75,-1.69,1.33,-13.97
3450,6.06,16.87,30.75,-1.23,2.02,-14.43
3460,-2.37,26.12,31.44,-0.88,2.51,-14.88
3470,-10.56,32.50,26.12,-0.53,2.90,-15.05
3480,-16.50,37.13,16.87,-0.59,2.35,-15.17
3490,-19.56,49.19,-0.13,-0.81,1.79,-15.23
3500,-19.56,49.19,-0.13,-0.78,1.51,-15.36
3510,-15.63,55.44,-0.81,-0.79,1.13,-15.72
3520,-8.13,60.94,0.31,-0.87,-0.12,-16.76
3530,-3.75,66.06,4.06,-0.34,-0.06,-17.82
3540,-3.50,72.00,17.44,0.42,0.80,-18.58
3550,-3.50,72.00,17.44,0.34,1.04,-19.36
3560,-8.94,71.44,14.00,0.39,1.11,-20.34
3570,-10.81,66.31,12.44,0.29,0.77,-20.45
3580,-9.06,56.56,14.88,-0.26,-0.17,-20.25
3590,-4.19,46.94,26.62,0.56,0.68,-20.62
3600,3.44,38.75,33.63,1.43,1.87,-20.63
3610,5.00,37.94,28.37,1.39,1.92,-20.72
3620,1.37,47.50,19.06,1.41,1.90,-20.94
3630,0.69,57.19,12.38,1.52,1.54,-21.60
3640,2.37,59.19,6.12,1.26,0.19,-22.83
3650,7.06,58.13,5.19,1.75,0.23,-23.66
3660,11.94,53.31,10.13,2.27,0.46,-24.22
3670,15.19,41.00,12.31,2.50,0.39,-24.45
3680,18.44,27.37,12.06,2.93,0.63,-24.34
3690,19.37,17.56,11.13,2.74,0.65,-24.29
3700,16.50,16.06,9.19,2.88,0.92,-24.49
3710,11.38,16.94,8.31,3.10,1.66,-24.64
3720,9.19,12.44,3.50,2.85,1.12,-24.77
3730,8.56,4.19,-4.50,2.62,0.68,-24.61
3740,7.56,-0.75,-7.87,2.49,0.32,-24.75
3750,5.87,-4.75,-8.63,3.07,-0.06,-24.51
3760,1.19,-10.31,-10.88,3.42,0.41,-24.80
3770,-5.62,-10.19,-20.56,2.44,-0.85,-23.65
3780,-18.19,-5.25,-30.12,1.88,-2.04,-23.63
3790,-13.50,-2.50,-14.81,3.39,0.86,-25.07
3800,-12.13,2.81,-1.81,3.54,1.54,-25.28
3810,-17.87,-0.69,-5.44,3.42,1.84,-25.25
3820,-20.25,-15.38,-14.75,2.65,1.30,-24.40
3830,-14.63,-38.31,-20.31,1.89,0.67,-22.25
3840,-1.87,-61.56,-17.69,1.94,0.52,-21.14
3850,11.38,-75.81,-13.56,1.64,0.24,-20.54
3860,20.25,-75.19,-10.44,1.71,0.13,-20.12
3870,19.06,-64.25,-9.81,1.32,0.30,-20.32
3880,11.69,-53.19,-14.13,1.15,0.34,-20.20
3890,4.44,-51.56,-14.25,0.89,0.41,-20.11
3900,-1.62,-57.13,-12.31,0.79,0.50,-19.57
3910,-6.12,-64.12,-8.81,0.82,1.00,-18.91
3920,-6.56,-69.19,-16.37,-0.11,0.55,-16.88
3930,-11.19,-70.37,-18.06,0.11,0.91,-17.02
3940,-4.06,-66.50,-15.19,0.10,1.31,-16.34
3950,2.87,-58.75,-17.19,-0.40,0.81,-17.01
3960,5.56,-48.25,-16.31,-0.67,0.61,-17.15
3970,0.69,-39.44,-16.06,-0.67,0.26,-17.66
3980,-5.25,-38.94,-16.56,-0.75,0.39,-17.53
3990,-14.63,-41.63,-17.69,-1.39,0.02,-16.48
4000,-20.37,-46.81,-16.19,-1.42,0.35,-15.76
4010,-20.12,-51.56,-13.31,-1.72,0.46,-14.98
4020,-15.06,-52.69,-10.81,-2.10,0.09,-13.57
4030,-6.25,-46.81,-6.62,-2.18,0.07,-13.43
4040,2.31,-32.38,-1.31,-2.24,0.08,-13.50
4050,5.31,-14.81,3.94,-2.47,0.10,-13.82
4060,5.81,-3.81,9.44,-2.05,0.92,-14.93
4070,0.00,-0.31,13.75,-2.16,0.91,-14.69
4080,-11.31,-1.56,14.56,-2.00,1.02,-14.25
4090,-16.37,-5.50,16.75,-1.87,1.38,-13.84
4100,-15.38,-4.25,17.94,-1.44,1.59,-13.35
4110,-15.25,5.81,16.44,-1.33,1.51,-13.52
4120,-11.56,20.37,14.25,-1.13,1.76,-13.54
4130,-5.12,36.81,12.38,-0.93,1.99,-14.24
4140,1.44,52.06,9.25,-0.95,1.62,-15.64
4150,3.69,62.25,7.19,-0.87,1.35,-16.08
4160,7.81,63.44,6.81,-0.70,0.96,-16.54
4170,12.44,62.38,8.06,-0.74,0.12,-17.13
4180,10.69,64.50,12.63,-0.21,0.60,-18.68
4190,5.62,68.00,19.81,0.08,1.42,-19.08
4200,-5.06,70.37,22.25,0.32,1.91,-19.75
4210,-7.06,65.56,16.06,0.14,1.57,-20.36
4220,-14.94,60.06,9.63,-1.47,-0.10,-20.22
4230,-11.13,48.50,13.06,-0.87,0.96,-19.98
4240,-4.50,35.69,31.37,-0.09,2.38,-19.70
4250,8.88,24.87,35.50,0.32,2.77,-19.38
4260,22.62,23.87,25.31,0.53,0.77,-19.35
4270,33.69,38.00,16.56,0.92,0.10,-20.31
4280,34.69,62.13,15.63,1.67,0.24,-22.00
4290,22.19,91.87,17.06,2.62,1.88,-25.51
4300,-3.12,114.25,16.00,2.97,2.43,-26.90
4310,-18.37,102.44,8.31,3.18,2.20,-27.64
4320,-21.12,61.38,-3.50,2.72,1.26,-26.98
4330,-19.87,17.62,-11.31,2.41,-0.03,-24.20
4340,-12.31,-11.50,-8.25,2.64,0.21,-23.06
4350,-1.87,-20.25,-1.81,2.96,0.49,-22.63
4360,8.25,-9.69,1.87,3.23,1.15,-22.98
4370,11.69,13.19,2.31,4.04,2.23,-25.31
4380,8.06,31.94,-1.81,4.32,2.33,-26.82
4390,4.62,35.94,-11.56,4.70,2.79,-27.55
4400,-8.31,28.19,-29.12,3.27,0.90,-27.46
4410,-19.31,5.06,-37.06,2.74,0.05,-26.58
4420,-13.13,-23.75,-24.37,2.99,0.48,-24.88
4430,-11.63,-47.06,-16.37,2.79,0.21,-23.84
4440,-5.62,-60.50,-15.00,2.50,0.28,-22.67
4450,2.12,-62.75,-11.19,2.63,1.73,-22.72
4460,7.94,-56.94,-4.75,2.94,2.42,-22.90
4470,6.19,-51.81,-7.25,2.82,2.57,-23.20
4480,2.31,-55.88,-23.44,1.75,1.50,-22.52
4490,0.62,-67.56,-30.44,1.30,0.99,-21.09
4500,1.12,-82.00,-30.37,1.17,0.83,-19.98
4510,0.19,-90.69,-31.75,0.77,0.42,-19.19
4520,-0.31,-89.62,-34.50,-0.01,-0.08,-18.04
4530,-0.88,-80.69,-31.50,-0.21,-0.17,-16.95
4540,-0.37,-68.56,-23.75,-0.56,-0.27,-16.96
4550,1.75,-58.56,-20.56,-0.96,-0.30,-16.72
4560,-1.87,-48.63,-14.31,-1.39,-0.25,-16.35
4570,2.00,-44.69,-6.00,-1.41,-0.02,-16.35
4580,12.25,-47.94,6.44,-0.67,0.87,-16.21
4590,18.00,-48.69,12.88,-1.62,0.19,-16.60
4600,13.81,-47.56,11.00,-1.19,1.29,-15.48
4610,10.63,-50.63,17.37,-0.90,1.74,-15.26
4620,11.38,-53.19,11.19,-1.45,1.07,-14.74
4630,2.94,-47.13,0.69,-2.22,0.20,-13.82
4640,-9.94,-35.94,2.56,-1.91,1.18,-12.95
4650,-9.94,-26.50,4.75,-2.36,0.51,-12.67
4660,-4.31,-18.25,5.44,-2.12,0.55,-12.76
4670,1.25,-6.25,11.50,-2.05,0.97,-12.64
4680,7.31,3.81,14.31,-1.79,1.21,-13.01
4690,14.63,11.19,16.00,-1.61,1.34,-13.33
4700,18.31,20.75,18.69,-1.51,1.46,-13.90
4710,19.31,29.06,20.31,-0.96,1.84,-14.50
4720,18.06,33.94,19.44,-0.93,1.78,-15.11
4730,14.56,33.69,13.81,-1.07,1.23,-15.16
4740,10.25,32.69,10.19,-1.02,1.03,-15.11
4750,6.19,35.00,9.88,-0.82,0.94,-15.13
4760,1.69,40.63,8.63,-0.93,0.00,-15.27
4770,0.31,49.31,8.13,-0.15,0.50,-15.63
4780,4.56,59.44,10.25,-0.55,-0.38,-16.04
4790,7.06,69.56,12.31,-0.34,-0.18,-16.71
4800,18.81,72.06,17.50,0.44,0.22,-18.82
4810,19.56,71.81,19.06,-0.36,-1.63,-19.58
4820,15.06,65.69,24.81,0.00,-1.25,-19.81
4830,7.37,59.75,43.69,1.09,0.10,-20.36
4840,0.19,56.69,47.75,1.68,2.50,-20.57
4850,-2.06,56.00,37.00,1.72,2.42,-20.50
4860,0.56,58.88,22.12,1.66,2.14,-21.08
4870,4.12,69.37,11.44,1.94,1.98,-22.56
4880,3.94,82.87,4.25,2.09,1.59,-23.77
4890,3.19,90.94,-3.62,2.21,1.15,-24.72
4900,2.12,90.94,-11.06,3.01,0.55,-25.83
4910,9.19,77.62,-16.44,9.60,-3.45,-30.85
4920,96.00,192.37,-12.38,13.83,0.71,-45.57
4930,124.19,437.87,-1.44,3.19,0.99,-47.02
4940,62.63,298.19,-35.56,0.32,-1.47,-42.75
4950,21.44,-38.56,-38.88,4.96,-3.51,-29.99
4960,-37.63,-258.25,-2.75,6.19,0.10,-24.02
4970,-74.37,-338.87,13.00,4.38,-0.62,-18.63
4980,-80.00,-364.94,-2.25,3.04,-0.16,-14.21
4990,-82.75,-288.44,-4.69,1.29,1.43,-11.65
5000,-91.87,-155.81,-5.31,1.31,2.08,-13.36
5010,-84.62,-26.12,-12.50,1.10,1.70,-16.09
5020,-62.88,63.13,-24.25,0.96,0.92,-19.03
5030,-34.31,105.06,-29.06,1.07,0.09,-24.14
5040,-10.69,95.69,-22.37,1.38,0.46,-25.55
5050,9.31,46.19,-11.38,1.54,0.78,-25.84
5060,16.31,-15.19,-2.50,1.61,1.20,-24.94
5070,14.56,-72.19,2.62,1.42,1.85,-20.95
5080,12.13,-115.31,2.75,1.26,1.79,-19.00
5090,7.87,-133.06,-0.44,1.11,1.72,-17.35
5100,1.44,-126.19,-7.62,0.48,1.53,-16.56
5110,-8.56,-104.44,-16.81,-0.41,1.08,-15.42
5120,-18.69,-76.62,-13.63,-0.60,1.35,-15.61
5130,-17.25,-56.44,-15.06,-0.81,1.32,-15.66
5140,-17.25,-56.44,-15.06,-1.54,0.47,-15.33
5150,-8.44,-39.94,-15.88,-1.55,0.55,-15.23
5160,-0.56,-37.94,-9.06,-1.62,0.67,-14.95
5170,4.31,-37.31,-3.31,-1.83,0.79,-14.57
5180,9.06,-37.88,1.50,-1.61,1.51,-13.68
5190,13.19,-35.69,3.37,-1.87,1.35,-13.26
5200,13.19,-35.69,3.37,-2.10,1.37,-13.00
5210,17.12,-17.87,1.50,-2.13,1.49,-12.85
5220,13.88,-5.50,3.12,-2.40,1.41,-12.63
5230,15.50,1.75,6.31,-2.06,1.60,-12.91
5240,15.50,1.75,6.31,-1.86,1.30,-12.83
5250,15.88,8.13,9.25,-1.69,0.88,-13.08
5260,6.12,28.50,6.50,-1.13,0.77,-14.06
5270,1.94,43.50,5.19,-0.91,0.79,-14.64
5280,-3.06,55.00,5.50,-0.44,1.16,-15.13
5290,-3.06,55.00,5.50,-0.36,1.55,-15.59
5300,-5.25,62.44,5.94,-0.41,1.13,-15.98
5310,-2.69,66.37,7.25,0.06,1.05,-17.02
5320,5.06,68.31,7.19,0.16,0.43,-17.42
5330,1.69,75.06,2.62,0.29,-0.29,-18.37
5340,1.69,75.06,2.62,0.57,0.26,-20.16
5350,-9.69,88.44,0.81,0.96,1.11,-21.04
5360,-22.81,91.69,9.81,1.44,1.97,-21.99
5370,-18.81,82.81,11.75,0.53,0.51,-22.48
5380,-11.19,75.12,24.31,3.17,2.43,-23.28
5390,-11.19,75.12,24.31,3.07,1.56,-24.40
5400,21.06,66.94,22.75,2.15,-0.34,-24.51
5410,19.44,75.06,0.13,1.92,-1.00,-25.68
5420,10.31,82.69,12.31,5.94,0.30,-24.55
5430,29.62,91.62,19.87,9.09,2.24,-33.73
5440,29.62,91.62,19.87,9.09,2.24,-33.73
5450,69.44,229.56,24.12,0.44,-2.38,-36.37
5460,9.63,10.25,-34.19,2.63,-2.34,-30.36
5470,-30.19,-183.75,-14.44,4.29,0.85,-24.83
5480,-49.13,-262.37,0.13,3.33,0.76,-19.71
5490,-49.13,-262.37,0.13,3.33,0.76,-19.71
5500,-45.31,-284.31,-10.63,0.75,0.80,-12.34
5510,-44.44,-115.75,-1.50,0.96,1.77,-14.18
5520,-33.50,-7.75,0.25,1.46,2.39,-16.54
5530,-21.12,67.62,-5.50,1.65,2.04,-22.28
5540,-21.12,67.62,-5.50,1.65,2.04,-22.28
5550,-5.87,100.62,-12.44,2.28,2.28,-25.96
5560,11.19,51.13,-15.50,2.34,2.26,-26.48
5570,10.44,-5.06,-16.19,2.66,2.59,-24.47
5580,8.19,-61.38,-21.44,1.74,1.45,-22.17
5590,8.19,-61.38,-21.44,1.74,1.45,-22.17
5600,8.44,-104.19,-30.56,1.29,0.73,-20.47
5610,8.00,-118.75,-26.56,0.38,0.27,-17.11
5620,6.12,-101.37,-22.00,0.47,1.08,-16.64
5630,6.87,-77.19,-21.19,-0.10,0.12,-17.75
5640,6.87,-77.19,-21.19,-0.10,0.12,-17.75
5650,-0.19,-53.63,-25.81,-0.79,0.23,-17.11
5660,-8.63,-40.50,-22.00,-1.23,0.03,-16.86
5670,-10.81,-40.31,-20.81,-1.42,-0.05,-16.40
5680,-10.19,-45.06,-17.75,-1.80,0.15,-16.03
5690,-10.19,-45.06,-17.75,-1.80,0.15,-16.03
5700,-11.44,-48.19,-12.19,-2.19,0.26,-14.59
5710,1.12,-54.69,-1.06,-2.34,0.40,-13.70
5720,3.00,-51.69,3.87,-2.36,0.43,-12.78
5730,0.69,-43.75,8.38,-2.56,0.53,-12.42
5740,0.69,-43.75,8.38,-2.56,0.53,-12.42
5750,-2.56,-33.19,12.31,-2.63,0.83,-12.17
5760,3.06,-9.50,22.25,-2.05,1.84,-12.23
5770,9.00,3.37,21.50,-1.89,1.80,-12.46
5780,11.63,22.87,19.00,-1.73,1.61,-13.33
5790,11.63,22.87,19.00,-1.73,1.61,-13.33
5800,10.00,42.81,16.94,-1.52,1.52,-14.12
5810,0.81,57.88,13.75,-1.10,1.40,-15.86
5820,-3.81,56.88,14.13,-0.93,1.43,-16.20
5830,-7.87,54.94,15.13,-0.74,1.61,-16.60
5840,-7.87,54.94,15.13,-0.74,1.61,-16.60
5850,-12.06,58.25,16.62,-0.46,2.12,-17.08
5860,-12.13,78.06,15.44,0.20,2.21,-18.48
5870,-12.13,78.06,15.44,0.46,2.13,-19.63
5880,-5.81,88.12,11.13,0.48,1.50,-21.56
5890,-3.00,96.25,6.37,0.48,1.50,-21.56
5900,-2.31,99.69,4.69,1.24,2.08,-22.75
5910,-1.06,96.75,6.81,1.54,1.47,-24.15
5920,-4.75,83.62,-4.19,1.05,0.36,-25.00
5930,-7.00,67.81,-11.06,1.60,1.34,-24.18
5940,-6.81,50.44,-2.50,1.60,1.34,-24.18
5950,-4.50,29.81,7.31,1.89,1.75,-23.85
5960,3.81,16.25,8.81,1.97,1.54,-23.89
5970,10.31,15.56,5.25,2.21,1.79,-24.30
5980,7.50,21.12,4.25,2.11,1.70,-24.54
5990,4.31,24.75,1.56,2.11,1.70,-24.54
6000,2.12,21.31,-3.94,1.88,0.97,-24.72
6010,-0.06,12.38,-6.69,1.81,0.66,-24.28
6020,-4.06,2.19,-6.50,1.66,0.63,-23.93
6030,-7.19,-9.63,-5.00,2.12,1.69,-23.23
6040,-8.94,-20.00,-0.75,2.12,1.69,-23.23
6050,-11.88,-24.87,2.75,2.32,2.01,-23.02
6060,-13.00,-28.87,0.44,2.09,2.43,-22.43
6070,-11.63,-30.37,-3.12,2.23,2.81,-22.64
6080,-6.12,-30.44,-4.37,1.99,2.49,-22.60
6090,-2.94,-27.25,-7.50,1.99,2.49,-22.60
6100,-1.87,-28.25,-13.56,1.64,1.90,-22.29
6110,-1.25,-34.06,-17.50,0.84,1.05,-20.39
6120,-0.69,-41.44,-16.94,1.25,1.63,-20.01
6130,1.69,-51.50,-14.69,0.68,0.98,-19.20
6140,3.87,-57.88,-15.06,0.68,0.98,-19.20
6150,-3.00,-52.50,-19.00,0.36,0.67,-19.02
6160,-9.56,-43.44,-16.56,0.39,1.73,-19.40
6170,-12.19,-38.63,-13.06,0.33,1.80,-19.26
6180,-14.63,-41.31,-13.13,-0.13,1.50,-18.86
6190,-22.00,-46.06,-16.62,-0.13,1.50,-18.86
6200,-28.06,-51.75,-17.75,-0.58,1.40,-17.70
6210,-30.56,-56.75,-15.13,-1.08,1.36,-16.28
6220,-26.62,-62.50,-12.25,-1.53,1.14,-15.18
6230,-20.12,-63.88,-9.31,-1.07,2.22,-14.60
6240,-7.25,-59.25,-1.44,-1.07,2.22,-14.60
6250,8.88,-47.69,4.06,-1.75,1.13,-14.91
6260,6.62,-30.00,4.44,-1.55,1.79,-15.09
6270,8.44,-18.06,6.25,-2.15,1.86,-15.19
6280,2.94,-8.69,5.87,-2.19,1.93,-15.14
6290,-2.75,-6.00,6.37,-2.19,1.93,-15.14
6300,-1.56,-9.94,9.06,-1.94,2.16,-14.86
6310,-0.31,-13.13,11.50,-1.71,1.95,-13.72
6320,0.81,-11.19,12.19,-1.84,1.70,-13.59
6330,2.19,-4.44,11.25,-1.75,1.73,-13.53
6340,3.81,5.50,11.13,-1.75,1.73,-13.53
6350,5.31,16.00,14.44,-1.26,2.22,-14.22
6360,5.69,28.06,15.88,-0.80,3.14,-15.29
6370,3.37,43.69,15.81,-0.47,3.15,-15.89
6380,9.06,55.19,13.19,-0.94,1.51,-17.53
6390,8.63,63.88,7.87,-0.94,1.51,-17.53
6400,9.81,64.12,3.69,-0.70,1.21,-17.29
6410,11.63,52.69,7.25,-0.24,1.03,-17.38
6420,20.06,42.63,11.25,0.06,1.63,-17.81
6430,27.12,43.50,15.13,0.04,1.19,-19.25
6440,33.25,52.06,19.12,0.04,1.19,-19.25
6450,35.56,68.25,23.56,0.75,2.52,-19.88
6460,26.44,91.69,28.06,1.83,2.54,-23.35
6470,17.87,105.75,17.00,2.13,1.40,-24.42
6480,12.44,108.44,-1.00,2.61,1.41,-25.69
6490,10.25,112.50,-5.19,2.61,1.41,-25.69
6500,14.06,110.50,-4.50,3.26,1.64,-27.19
6510,16.69,92.25,-9.56,3.88,0.14,-27.74
6520,19.37,64.00,-13.63,4.59,-0.43,-27.71
6530,20.31,40.56,-11.88,5.67,1.09,-31.93
6540,33.69,64.94,-3.75,5.67,1.09,-31.93
6550,28.94,78.06,-3.87,3.43,-0.28,-31.35
6560,7.31,-6.56,-8.94,3.67,0.77,-27.19
6570,-17.12,-68.87,-7.19,2.58,0.15,-21.81
6580,-33.75,-104.94,-12.50,2.29,0.53,-20.42
6590,-29.31,-125.12,-10.88,2.29,0.53,-20.42
6600,-24.94,-115.62,-4.69,2.34,1.38,-19.58
6610,-30.31,-78.00,-2.00,1.51,2.64,-20.57
6620,-28.50,-43.81,-5.81,1.35,2.65,-20.84
6630,-14.75,-29.44,-9.50,1.68,2.61,-20.99
6640,-1.69,-29.62,-11.25,1.68,2.61,-20.99
6650,11.19,-41.50,-15.69,1.15,2.15,-20.86
6660,12.69,-54.63,-23.44,0.76,1.70,-18.87
6670,6.56,-65.81,-20.25,0.36,1.41,-17.79
6680,1.81,-74.69,-19.81,-0.21,0.96,-17.03
6690,-1.69,-76.19,-24.94,-0.21,0.96,-17.03
6700,-4.62,-64.62,-24.94,-0.67,0.39,-16.14
6710,-4.44,-48.38,-22.06,-1.03,0.16,-16.27
6720,-0.75,-32.63,-13.56,-0.49,1.08,-15.93
6730,10.06,-23.56,-6.50,-0.96,0.58,-17.82
6740,11.31,-19.62,-4.37,-0.91,1.32,-17.80
6750,13.38,-27.50,3.00,-0.90,1.47,-17.30
6760,10.69,-41.25,1.62,-1.27,1.05,-16.29
6770,10.00,-51.50,-1.56,-1.77,0.33,-15.64
6780,8.13,-52.94,1.37,-1.75,0.50,-14.35
6790,7.44,-50.00,3.37,-2.14,0.19,-13.69
6800,4.56,-41.63,4.50,-2.26,0.25,-13.29
6810,3.44,-28.94,9.19,-2.36,0.39,-13.09
6820,2.62,-15.06,14.63,-1.98,1.00,-13.47
6830,1.12,-1.81,19.94,-1.68,1.33,-13.96
6840,0.13,9.81,21.00,-1.31,1.54,-14.67
6850,-5.19,22.19,21.19,-0.62,2.61,-16.17
6860,-9.19,30.62,18.69,-0.23,3.21,-16.51
6870,-13.06,32.81,14.38,0.47,3.77,-16.96
6880,-11.44,31.56,4.87,-0.04,3.59,-17.00
6890,-10.00,33.81,-7.56,-0.65,2.01,-17.43
6900,-8.00,41.00,-13.69,-0.56,1.93,-17.73
6910,-9.19,49.63,-14.44,-0.52,1.65,-18.46
6920,-12.69,57.56,-15.44,-0.54,1.86,-18.91
6930,-17.25,63.88,-14.75,-0.21,2.26,-20.00
6940,-15.06,64.69,-15.56,0.21,2.22,-20.71
6950,-7.44,60.94,-19.75,0.59,2.43,-21.20
6960,-2.75,59.06,-24.56,0.95,2.44,-21.88
6970,-1.62,55.63,-31.50,0.90,2.65,-21.60
6980,2.81,44.38,-38.38,1.38,2.81,-21.50
6990,5.75,37.88,-42.69,1.84,3.17,-21.15
7000,3.19,46.44,-48.31,2.21,3.24,-21.33
7010,4.31,60.63,-57.13,1.97,1.42,-22.00
7020,11.38,75.06,-67.69,1.33,-0.18,-22.81
7030,21.75,78.50,-71.62,1.37,-0.88,-23.35
7040,30.25,60.88,-59.88,1.54,-0.68,-23.64
7050,31.87,34.31,-46.75,2.66,0.97,-22.71
7060,30.44,14.63,-40.31,2.87,1.88,-22.08
7070,26.56,10.13,-43.94,2.82,2.16,-21.89
7080,21.87,13.81,-55.31,2.88,2.14,-21.77
7090,14.19,17.06,-66.06,1.95,1.38,-21.15
7100,7.69,17.81,-73.87,2.04,0.31,-20.92
7110,6.75,17.31,-76.81,2.60,-0.33,-21.64
7120,2.62,22.87,-76.75,2.16,-1.14,-21.56
7130,-1.56,22.81,-72.44,1.40,-2.03,-22.44
7140,2.00,4.87,-59.75,1.69,-0.85,-22.24
7150,4.44,-26.00,-44.25,1.53,0.05,-21.24
7160,8.19,-56.19,-36.81,1.64,1.04,-18.70
7170,13.44,-70.87,-33.75,1.47,1.60,-17.77
7180,17.19,-67.56,-33.81,1.49,2.27,-17.13
7190,14.06,-46.75,-37.50,1.83,2.62,-16.67
7200,9.75,-17.50,-47.19,1.08,1.63,-16.73
7210,6.44,13.50,-56.88,1.01,0.80,-17.56
7220,5.62,40.31,-60.38,0.82,-0.21,-18.73
7230,2.25,60.19,-58.06,0.47,-0.73,-19.78
7240,-2.00,63.81,-49.00,1.08,0.48,-21.55
7250,-6.12,46.13,-38.00,0.60,0.80,-21.04
7260,-8.75,17.87,-33.75,0.25,0.70,-20.63
7270,-0.44,-14.75,-27.56,0.82,1.25,-19.98
7280,4.81,-38.69,-17.31,1.74,2.67,-18.32
7290,8.50,-44.88,-16.00,1.48,2.47,-17.80
7300,18.31,-42.88,-25.00,1.38,2.01,-18.36
7310,21.94,-31.00,-30.37,1.86,2.67,-16.67
7320,8.69,2.19,-37.94,1.15,0.90,-17.67
7330,5.87,47.00,-45.94,1.76,1.20,-19.79
7340,4.44,67.00,-47.81,2.44,1.81,-21.09
7350,2.31,58.94,-55.81,2.44,1.85,-21.07
7360,3.31,42.13,-67.50,0.29,-4.08,-19.99
7370,-69.37,35.00,-63.69,0.75,-1.88,-15.11
7380,-161.06,52.81,-31.69,1.02,-0.61,-17.00
7390,-128.31,76.44,2.94,2.27,0.60,-16.86
7400,-82.12,90.00,23.19,2.89,2.08,-18.25
7410,-55.50,92.44,23.56,3.61,4.14,-19.71
7420,-29.94,73.31,13.13,4.11,4.88,-20.80
7430,3.94,43.00,-7.87,3.65,4.02,-20.10
7440,16.75,18.75,-29.94,3.76,3.36,-20.25
7450,20.44,5.75,-43.31,3.71,2.70,-20.57
7460,15.88,0.25,-48.69,3.61,2.90,-22.20
7470,5.44,-22.31,-55.69,3.06,1.77,-21.44
7480,21.19,-75.50,-60.19,2.54,1.02,-19.72
7490,12.75,-104.31,-57.63,1.95,0.49,-17.03
7500,3.81,-97.62,-49.50,1.03,-0.19,-16.43
7510,9.31,-67.56,-27.50,1.50,2.63,-17.54
7520,21.37,-42.69,-11.69,1.33,2.71,-18.15
7530,32.81,-32.38,-8.44,1.16,2.20,-18.68
7540,37.75,-27.81,-3.19,1.54,2.35,-19.95
7550,10.63,-30.25,1.12,1.10,3.43,-20.64
7560,-82.62,-41.00,11.88,4.16,2.70,-21.20
7570,-5.25,-55.88,12.19,3.11,1.22,-19.15
7580,19.69,-48.50,-10.06,0.65,1.26,-18.67
7590,10.81,-19.06,-6.06,0.04,3.93,-18.11
7600,-8.63,3.25,-7.31,-0.57,2.87,-19.02
7610,-11.06,3.31,-7.44,-0.25,2.24,-19.99
7620,-0.94,-16.62,0.19,-0.93,0.90,-19.68
7630,17.12,-43.44,10.06,-0.18,2.61,-20.43
7640,45.94,-78.87,16.37,0.47,1.69,-21.96
7650,58.13,-119.50,3.87,1.09,3.21,-21.51
