timestamp,gyrox,gyroy,gyroz,accx,accy,accz
10,-0.31,8.81,-10.81,0.00,0.00,0.00
20,2.00,12.13,-9.56,0.00,0.00,0.00
30,2.50,12.25,-5.25,0.00,0.00,0.00
40,1.19,12.44,0.31,0.10,0.79,-15.06
50,-1.06,14.69,2.94,0.34,1.13,-14.91
60,-3.00,20.87,2.81,0.37,1.20,-14.73
70,-5.12,32.88,1.94,0.54,1.14,-15.00
80,-6.19,46.25,0.94,0.52,0.91,-15.34
90,-6.19,57.38,1.62,0.60,0.89,-16.14
100,-8.44,66.19,3.44,0.87,1.03,-16.92
110,-9.50,71.00,3.87,1.37,1.38,-18.49
120,-8.88,70.94,7.00,1.08,1.28,-19.23
130,-5.12,68.75,15.38,1.88,1.74,-19.91
140,-3.75,65.50,15.75,2.63,1.75,-21.59
150,-1.00,58.94,14.63,2.91,1.86,-21.69
160,3.44,50.56,12.88,3.01,1.59,-22.46
170,3.44,44.50,13.38,2.85,1.53,-22.24
180,6.62,38.38,16.00,3.20,2.15,-22.38
190,10.81,32.63,14.44,3.30,2.29,-22.27
200,14.06,30.06,12.19,3.06,1.79,-22.57
210,15.31,30.00,12.69,3.25,1.80,-22.63
220,16.81,27.06,11.50,3.52,2.05,-23.14
230,16.19,23.56,8.81,3.36,1.73,-23.26
240,12.75,19.69,7.62,3.29,1.63,-23.37
250,8.94,12.38,7.87,3.17,1.49,-23.56
260,7.62,2.62,8.75,3.24,1.83,-22.80
270,8.06,-1.94,7.56,3.26,1.87,-22.39
280,8.81,1.25,6.06,3.27,1.89,-22.21
290,10.50,6.00,4.62,3.19,1.90,-22.49
300,10.44,7.44,2.75,3.35,1.74,-23.34
310,7.69,5.06,0.56,3.43,1.64,-23.64
320,5.81,-1.69,-2.06,3.57,1.58,-23.74
330,5.75,-10.94,-5.50,3.61,1.40,-23.68
340,5.75,-18.06,-7.62,3.46,0.68,-23.02
350,7.62,-22.12,-6.69,3.22,0.54,-22.52
360,11.13,-24.94,-4.37,3.44,0.62,-22.41
370,10.13,-24.00,-5.06,3.69,0.90,-22.27
380,9.19,-24.87,-5.25,3.36,0.79,-22.39
390,6.19,-29.37,-3.37,3.50,0.84,-22.47
400,4.56,-38.63,-3.06,3.47,0.85,-22.23
410,5.00,-47.50,-2.56,3.39,0.90,-21.75
420,8.13,-53.25,-2.87,3.17,1.02,-20.50
430,13.44,-55.19,-5.31,3.61,1.50,-19.96
440,10.63,-50.81,-8.50,2.81,0.67,-20.15
450,8.25,-49.38,-6.87,2.53,0.73,-20.09
460,2.31,-51.69,-5.19,2.60,1.12,-20.03
470,-6.12,-56.81,-6.69,2.35,1.27,-19.60
480,-12.50,-61.44,-8.06,1.92,1.19,-18.75
490,-14.63,-61.44,-5.44,1.78,1.49,-17.68
500,-15.13,-59.06,-4.19,1.78,1.91,-17.35
510,-14.69,-57.31,-7.25,1.51,1.94,-16.93
520,-13.50,-54.50,-10.19,1.14,1.68,-16.49
530,-14.44,-48.69,-10.44,0.60,1.32,-15.91
540,-14.69,-43.94,-9.38,0.26,1.29,-15.61
550,-11.44,-42.38,-7.75,-0.07,1.20,-15.24
560,-5.37,-40.13,-6.19,-0.01,1.53,-14.89
570,-1.19,-36.69,-4.69,-0.26,1.17,-14.37
580,2.75,-30.00,-4.50,-0.54,1.13,-13.78
590,1.75,-19.50,-1.81,-0.87,0.81,-14.04
600,-2.75,-10.94,0.75,-0.78,0.99,-13.96
610,-6.44,-4.44,0.19,-0.99,1.06,-13.67
620,-6.44,1.37,1.00,-1.11,0.93,-13.44
630,-6.44,1.37,1.00,-1.15,0.86,-13.33
640,-1.31,19.56,8.69,-0.74,0.91,-13.36
650,3.44,31.19,10.13,-0.53,0.89,-13.96
660,7.62,40.44,11.75,-0.32,0.87,-14.44
670,7.75,50.25,12.75,0.28,1.00,-14.96
680,3.69,64.06,12.94,0.50,0.79,-15.58
690,-1.00,75.81,17.00,0.97,0.83,-17.80
700,-4.50,78.12,19.87,1.69,1.37,-18.91
710,-4.62,71.31,18.44,1.95,1.55,-19.50
720,-2.87,63.88,19.75,0.88,0.57,-19.81
730,-2.87,63.88,19.75,2.25,1.68,-20.34
740,16.06,41.38,26.19,2.30,1.57,-20.07
750,27.25,36.06,25.94,1.74,0.69,-19.82
760,31.31,44.44,30.94,2.31,0.44,-20.92
770,27.44,56.19,35.31,2.94,1.39,-22.16
780,27.44,56.19,35.31,3.04,1.96,-22.90
790,17.44,59.06,33.69,3.44,2.59,-23.41
800,7.75,39.63,18.12,3.64,2.48,-23.56
810,7.19,31.44,9.00,3.67,2.21,-23.26
820,11.13,27.19,0.69,3.34,1.72,-22.75
830,11.13,27.19,0.69,2.80,0.68,-22.69
840,20.31,24.75,-1.31,3.16,0.40,-22.88
850,40.31,24.00,2.69,3.31,0.03,-23.41
860,42.81,24.50,3.06,3.33,-0.11,-23.75
870,38.56,26.81,3.31,3.69,-0.12,-24.29
880,38.56,26.81,3.31,3.69,-0.12,-24.29
890,26.69,32.25,1.12,3.47,0.33,-26.39
900,7.06,7.44,-4.31,3.49,0.02,-26.39
910,-0.50,-8.13,-5.44,3.53,-0.19,-26.02
920,-7.44,-14.50,-5.69,4.13,-0.18,-25.09
930,-7.44,-14.50,-5.69,4.15,0.05,-24.95
940,-11.75,-15.81,-7.37,4.26,0.39,-24.98
950,-14.50,-26.12,-14.44,4.34,0.89,-24.99
960,-15.25,-37.81,-19.00,3.92,0.74,-23.87
970,-14.38,-47.69,-20.69,3.64,0.60,-23.10
980,-14.38,-47.69,-20.69,3.43,0.77,-22.64
990,-14.75,-52.63,-20.75,3.22,0.80,-22.12
1000,-15.94,-62.25,-26.25,2.88,0.79,-21.10
1010,-17.00,-64.06,-27.00,1.81,-0.14,-20.04
1020,-12.56,-67.00,-18.12,1.78,0.04,-20.22
1030,-12.56,-67.00,-18.12,2.47,0.91,-19.77
1040,-11.44,-72.56,-14.50,2.11,0.88,-19.10
1050,-11.63,-80.25,-16.62,1.71,1.01,-18.39
1060,-10.56,-78.25,-16.44,1.70,1.22,-17.82
1070,-10.88,-72.12,-19.56,1.46,1.12,-16.97
1080,-10.88,-72.12,-19.56,1.18,0.90,-16.78
1090,-12.88,-65.50,-23.75,0.77,0.59,-16.37
1100,-19.19,-49.88,-29.31,0.42,0.52,-15.91
1110,-23.62,-42.25,-28.50,-0.18,0.28,-15.34
1120,-20.62,-36.81,-24.50,-0.25,0.32,-15.73
1130,-20.62,-36.81,-24.50,-0.25,0.32,-15.73
1140,-23.75,-30.37,-19.69,-0.02,0.65,-15.78
1150,-28.37,-27.44,-23.25,-1.06,0.06,-15.51
1160,-35.94,-27.62,-18.37,-1.04,0.23,-15.20
1170,-39.81,-28.81,-13.25,-0.73,0.74,-14.51
1180,-39.81,-28.81,-13.25,-0.73,0.74,-14.51
1190,-36.88,-25.31,-10.75,-0.88,0.63,-13.82
1200,-12.44,-8.88,3.00,-1.22,0.56,-12.60
1210,3.31,1.19,9.31,-1.18,0.69,-12.93
1220,12.13,10.88,15.38,-1.33,0.80,-13.37
1230,12.13,10.88,15.38,-1.33,0.80,-13.37
1240,14.56,15.63,20.87,-0.94,1.33,-14.28
1250,8.38,25.06,22.44,-0.46,1.86,-14.24
1260,3.44,39.50,19.69,-0.07,1.87,-14.31
1270,-3.06,57.00,16.19,0.46,1.74,-15.40
1280,-3.06,57.00,16.19,0.46,1.74,-15.40
1290,-5.62,69.75,13.56,0.71,1.74,-16.19
1300,5.25,72.94,12.88,0.97,1.36,-18.54
1310,9.13,66.69,15.25,1.11,1.32,-18.90
1320,14.13,56.69,17.75,1.20,1.45,-18.70
1330,14.13,56.69,17.75,1.20,1.45,-18.70
1340,22.25,48.19,19.69,1.40,1.57,-18.82
1350,32.25,53.38,21.87,1.91,1.44,-18.74
1360,32.25,53.38,21.87,1.77,0.87,-18.63
1370,29.69,64.56,20.87,2.25,0.77,-19.15
1380,31.56,76.50,20.19,2.25,0.77,-19.15
1390,20.37,94.25,19.00,2.76,0.47,-21.16
1400,13.38,104.25,19.50,2.50,-0.11,-23.55
1410,7.56,105.12,26.37,3.40,1.13,-25.05
1420,6.44,90.12,33.50,4.19,2.63,-25.86
1430,5.50,58.81,31.50,4.19,2.63,-25.86
1440,2.50,29.37,20.25,4.21,2.35,-24.58
1450,4.81,15.63,12.06,3.55,1.30,-22.55
1460,13.06,17.44,12.50,4.27,1.74,-23.34
1470,24.56,27.00,14.25,4.52,1.90,-24.56
1480,34.38,34.38,10.00,4.52,1.90,-24.56
1490,36.75,30.81,3.37,4.31,1.21,-25.95
1500,29.06,16.87,1.94,4.39,0.46,-26.63
1510,15.56,-1.37,3.06,4.68,1.02,-25.92
1520,2.00,-16.37,2.62,4.85,1.49,-24.97
1530,-7.19,-24.06,-2.56,4.85,1.49,-24.97
1540,-9.75,-23.50,-9.69,4.79,1.57,-24.04
1550,-7.69,-17.37,-15.50,4.37,1.18,-23.63
1560,-3.25,-11.38,-20.50,4.30,0.99,-24.15
1570,-2.94,-9.31,-23.62,3.63,0.45,-24.64
1580,-2.56,-18.06,-23.25,3.63,0.45,-24.64
1590,-5.75,-33.94,-19.12,3.79,0.55,-24.29
1600,-7.62,-51.25,-16.31,3.47,0.90,-22.32
1610,-4.62,-65.12,-14.00,4.33,1.77,-20.52
1620,-1.44,-69.37,-14.94,3.37,0.83,-20.80
1630,-2.94,-60.75,-24.19,3.37,0.83,-20.80
1640,-10.69,-51.88,-25.75,2.74,0.77,-20.23
1650,-12.00,-55.69,-24.25,2.54,0.86,-19.54
1660,-10.50,-66.31,-26.75,2.09,0.48,-19.14
1670,-11.69,-70.69,-27.25,1.84,0.28,-18.47
1680,-16.06,-68.50,-24.31,1.84,0.28,-18.47
1690,-16.81,-65.50,-20.25,1.75,0.43,-18.23
1700,-18.62,-65.31,-18.12,1.29,1.05,-17.12
1710,-17.75,-68.44,-19.19,1.51,1.12,-16.75
1720,-14.63,-71.06,-22.12,0.77,0.73,-15.51
1730,-6.75,-69.75,-24.44,0.77,0.73,-15.51
1740,-9.06,-58.44,-15.06,0.38,0.39,-15.48
1750,-11.31,-48.88,-12.75,0.53,1.11,-15.21
1760,-17.37,-41.06,-17.69,-0.07,0.74,-15.33
1770,-22.87,-34.19,-20.12,-0.20,0.63,-14.64
1780,-21.94,-32.19,-18.56,-0.20,0.63,-14.64
1790,-23.19,-28.81,-16.37,-0.58,0.37,-14.16
1800,-20.56,-23.37,-12.81,-0.71,0.18,-13.68
1810,-18.50,-15.06,-8.44,-1.25,-0.26,-13.37
1820,-12.25,-9.13,1.00,-0.74,0.44,-13.62
1830,-3.12,-3.37,12.56,-0.74,0.44,-13.62
1840,2.50,2.19,16.62,-0.35,1.06,-13.87
1850,5.62,6.25,17.06,-0.46,1.00,-13.91
1860,6.56,11.75,18.44,-0.27,1.16,-14.11
1870,6.12,20.06,19.94,-0.05,1.41,-14.28
1880,4.00,30.87,19.75,-0.05,1.41,-14.28
1890,-1.75,42.56,17.06,0.36,1.73,-15.26
1900,-7.12,51.63,13.50,0.93,1.52,-16.32
1910,-11.00,59.31,11.19,1.09,1.50,-16.94
1920,-13.75,66.31,10.38,1.36,1.75,-18.23
1930,-15.88,69.44,11.25,1.36,1.75,-18.23
1940,-16.81,69.25,12.06,1.44,1.98,-18.66
1950,-12.94,64.75,11.50,1.67,1.88,-18.82
1960,-5.12,61.00,10.44,1.28,1.32,-19.14
1970,2.44,60.25,12.56,1.99,1.41,-19.92
1980,7.87,59.19,17.25,1.99,1.41,-19.92
1990,4.25,61.63,22.06,1.78,1.28,-19.79
2000,5.69,63.25,23.50,3.04,2.41,-20.87
2010,8.69,66.06,16.19,2.68,1.70,-21.28
2020,16.69,70.50,13.38,2.82,1.48,-22.44
2030,26.44,68.19,18.25,2.82,1.48,-22.44
2040,29.25,61.06,21.06,3.50,1.81,-23.02
2050,29.56,52.50,19.19,3.69,2.01,-24.09
2060,23.12,48.38,22.87,4.52,2.83,-24.57
2070,14.06,45.94,18.25,4.58,2.95,-24.53
2080,4.69,43.19,4.75,4.58,2.95,-24.53
2090,2.50,38.63,-2.50,3.73,1.45,-24.60
2100,9.06,31.25,-2.50,4.30,0.92,-25.31
2110,18.31,28.19,-1.12,4.26,0.66,-26.08
2120,21.37,21.50,0.00,4.68,0.83,-26.90
2130,17.31,7.75,2.25,4.68,0.83,-26.90
2140,10.38,-7.56,0.31,4.84,0.85,-26.60
2150,5.44,-20.37,-3.00,4.45,0.48,-24.69
2160,-0.37,-27.75,-2.94,4.27,0.74,-24.01
2170,-5.31,-33.81,-2.50,4.27,0.74,-24.01
2180,-7.50,-38.44,-2.75,4.14,0.70,-23.28
2190,-6.12,-40.00,-1.00,4.10,0.82,-22.91
2200,-1.50,-43.94,-0.69,4.04,1.19,-22.48
2210,3.44,-48.81,-1.12,3.94,1.05,-22.40
2220,6.00,-52.13,-0.50,3.92,1.21,-22.28
2230,6.44,-57.94,-0.50,3.80,1.32,-22.17
2240,5.25,-64.00,-3.50,4.50,2.45,-21.48
2250,-0.50,-66.06,-12.63,3.21,1.63,-20.95
2260,-8.88,-65.87,-13.50,2.93,1.43,-20.61
2270,-13.88,-66.94,-14.69,3.15,1.90,-20.13
2280,-14.44,-68.37,-21.25,2.38,1.46,-18.97
2290,-12.00,-68.50,-23.69,1.72,1.01,-18.65
2300,-11.38,-66.50,-21.00,1.47,0.99,-18.31
2310,-10.13,-63.81,-18.50,1.20,0.97,-17.88
2320,-6.19,-61.13,-15.00,0.87,0.88,-17.46
2330,-1.75,-58.19,-12.56,0.90,1.23,-17.56
2340,-1.44,-55.88,-13.69,0.74,1.32,-17.46
2350,-3.87,-55.50,-15.25,0.45,0.90,-17.48
2360,-9.13,-52.81,-15.19,-0.30,0.05,-17.23
2370,-17.06,-47.13,-8.94,-0.20,0.58,-16.69
2380,-18.87,-44.94,-7.31,0.23,1.47,-16.29
2390,-20.50,-42.50,-9.13,-0.28,1.06,-16.69
2400,-22.06,-39.94,-7.12,-0.46,1.45,-15.70
2410,-21.44,-39.50,-7.19,-0.54,1.74,-15.31
2420,-19.81,-37.88,-7.81,-0.73,1.47,-15.03
2430,-18.00,-32.38,-7.19,-1.36,0.84,-13.91
2440,-13.44,-23.50,-1.19,-1.34,1.21,-13.39
2450,-6.19,-14.81,4.50,-1.12,1.35,-13.52
2460,-1.19,-5.44,7.19,-0.91,1.45,-13.71
2470,0.62,1.69,9.13,-1.18,1.48,-13.99
2480,2.62,4.87,12.56,-1.05,1.77,-14.14
2490,0.62,9.94,14.94,-0.79,2.04,-14.01
2500,-0.56,15.94,14.63,-0.66,2.09,-13.93
2510,-0.88,24.69,13.25,-0.11,2.19,-13.83
2520,-1.56,40.44,11.38,0.41,2.36,-14.40
2530,-5.81,58.81,5.94,0.78,2.49,-15.25
2540,-9.25,71.06,0.88,0.75,2.27,-16.15
2550,-10.63,74.69,-1.69,0.77,1.74,-18.03
2560,-12.75,71.94,-2.81,0.76,1.42,-18.69
2570,-16.25,67.75,-2.06,0.90,1.27,-19.06
2580,-20.50,65.69,-1.62,1.08,1.20,-19.51
2590,-28.94,64.94,-1.62,1.02,0.93,-20.55
2600,-40.25,58.38,-1.62,1.03,0.80,-20.89
2610,-53.69,47.81,0.25,0.72,0.36,-20.38
2620,-65.31,49.81,8.69,1.15,0.76,-19.49
2630,-80.12,63.44,17.87,1.83,2.70,-19.94
2640,-76.69,64.31,19.00,2.89,4.25,-20.70
2650,-69.06,57.75,13.19,2.47,4.29,-20.35
2660,-39.44,40.25,24.50,1.10,3.18,-19.83
2670,4.25,26.44,44.88,3.04,5.15,-19.55
2680,38.00,28.31,44.19,4.09,6.15,-19.74
2690,55.00,39.25,33.13,3.43,5.43,-20.74
2700,56.00,48.63,29.44,3.44,4.77,-21.84
2710,46.69,47.81,25.12,3.76,4.94,-23.88
2720,38.00,33.19,15.63,3.81,4.93,-24.07
2730,33.94,16.37,4.87,3.53,4.16,-23.51
2740,35.69,9.81,1.06,2.87,2.82,-22.33
2750,39.63,11.81,1.12,3.08,2.66,-22.39
2760,40.44,16.19,0.75,3.11,2.29,-22.69
2770,39.56,18.00,1.56,3.03,2.03,-23.09
2780,38.63,15.13,3.06,3.38,1.95,-24.12
2790,32.38,10.56,2.06,3.44,1.56,-24.45
2800,21.69,5.69,0.94,3.39,1.31,-24.77
2810,7.37,-0.81,0.44,3.54,1.37,-24.96
2820,-5.25,-6.69,-1.37,4.15,1.62,-24.66
2830,-11.31,-9.19,-3.19,4.18,2.03,-24.57
2840,-8.81,-13.25,-4.25,4.39,2.46,-24.50
2850,-0.37,-21.69,-9.19,4.67,2.74,-24.47
2860,9.13,-32.56,-12.19,3.74,2.18,-23.86
2870,19.31,-44.31,-10.31,3.63,1.89,-23.23
2880,29.81,-51.38,-7.44,3.50,1.79,-22.77
2890,36.00,-54.69,-6.50,3.48,1.56,-22.64
2900,34.88,-55.13,-7.50,3.12,0.85,-22.53
2910,27.81,-56.88,-9.19,3.50,1.41,-22.37
2920,14.56,-60.44,-13.19,2.45,0.42,-22.48
2930,3.50,-68.75,-7.62,1.91,0.26,-21.66
2940,-3.31,-78.44,-5.19,2.57,1.65,-20.46
2950,-7.94,-83.06,-9.94,2.25,1.60,-19.37
2960,-8.69,-80.06,-13.00,1.76,1.45,-18.45
2970,-7.25,-71.62,-12.25,1.61,1.63,-17.74
2980,-7.12,-60.69,-12.13,1.44,1.82,-17.89
2990,-10.13,-55.50,-13.44,1.16,1.87,-18.16
3000,-15.88,-58.25,-14.88,1.01,1.98,-18.10
3010,-19.69,-62.69,-18.12,0.78,2.03,-16.97
3020,-21.19,-62.81,-22.19,0.65,1.89,-16.22
3030,-21.06,-58.94,-23.75,-0.31,1.04,-15.83
3040,-13.75,-55.06,-19.94,-0.14,1.36,-14.62
3050,-10.31,-43.75,-16.37,-0.10,1.72,-14.21
3060,-5.19,-32.69,-15.38,-0.88,0.99,-14.90
3070,-4.87,-23.62,-12.06,-0.68,1.31,-15.05
3080,-6.44,-20.31,-13.63,-0.60,1.60,-14.98
3090,-8.69,-20.00,-11.00,-1.00,1.34,-14.63
3100,-7.69,-19.69,-7.87,-1.27,1.17,-14.80
3110,-6.37,-18.81,-5.19,-1.36,1.30,-13.94
3120,-0.06,-16.19,-2.62,-1.46,1.05,-13.53
3130,5.94,-7.75,1.94,-1.75,0.37,-13.13
3140,8.94,4.75,9.94,-1.64,0.59,-13.45
3150,7.19,16.25,16.00,-1.15,1.28,-14.22
3160,-3.31,22.69,15.63,-0.92,1.69,-14.96
3170,-15.13,23.31,13.81,-0.77,2.30,-14.70
3180,-22.06,27.50,9.94,-0.57,2.35,-14.30
3190,-23.81,39.06,5.62,-0.42,2.22,-14.04
3200,-18.12,53.94,3.69,-0.44,2.04,-13.99
3210,-7.37,67.12,4.31,-0.13,1.32,-15.36
3220,4.31,74.37,8.38,-0.29,0.74,-16.40
3230,12.75,74.00,17.06,-0.03,0.83,-17.39
3240,16.69,68.19,23.31,0.51,1.51,-18.23
3250,17.00,62.75,23.62,1.25,2.52,-18.80
3260,15.50,63.13,19.94,1.42,2.72,-19.00
3270,11.88,67.37,15.38,1.50,2.62,-19.28
3280,10.44,71.31,10.69,1.35,1.84,-19.93
3290,12.44,74.25,10.50,1.70,1.81,-20.61
3300,13.38,73.50,11.75,1.31,0.88,-21.28
3310,18.19,65.75,19.56,1.73,0.65,-21.78
3320,24.37,56.63,22.37,2.80,1.97,-21.99
3330,30.62,54.13,19.75,3.06,2.00,-22.13
3340,31.31,59.31,16.12,3.18,1.86,-22.77
3350,26.56,65.44,13.56,3.24,1.85,-23.43
3360,24.37,60.38,12.88,3.13,1.65,-24.75
3370,27.25,44.38,13.56,3.51,1.59,-25.18
3380,30.75,27.31,10.38,3.81,1.27,-25.32
3390,30.31,17.37,7.81,3.74,0.90,-25.27
3400,27.06,11.06,7.75,3.78,0.47,-25.50
3410,22.00,5.87,8.81,4.15,0.78,-25.49
3420,15.44,5.62,6.12,4.43,1.04,-25.46
3430,7.06,10.19,0.37,4.72,1.31,-25.95
3440,-2.06,6.44,-7.06,4.20,0.93,-27.00
3450,-10.31,-8.44,-11.13,3.86,0.46,-26.73
3460,-13.75,-26.06,-10.81,3.53,0.18,-25.91
3470,-11.06,-38.75,-7.87,3.46,0.30,-24.75
3480,-7.87,-39.94,-5.50,3.56,0.47,-23.46
3490,-3.75,-36.38,-3.44,3.61,0.75,-23.57
3500,1.19,-39.19,-2.44,3.45,0.99,-23.76
3510,3.31,-47.56,-1.44,3.35,1.36,-23.97
3520,1.56,-58.75,-3.75,3.96,2.57,-23.46
3530,-5.62,-66.12,-14.38,3.28,1.90,-23.26
3540,-15.06,-70.00,-17.00,2.50,1.44,-22.06
3550,-16.19,-76.62,-19.12,2.64,1.77,-20.76
3560,-14.13,-80.75,-24.56,2.06,1.24,-20.07
3570,-10.06,-81.25,-26.69,1.39,0.85,-19.11
3580,-3.50,-80.44,-24.50,1.16,0.70,-18.61
3590,2.00,-78.25,-21.81,0.35,0.30,-17.72
3600,6.81,-77.37,-16.37,0.36,0.34,-17.76
3610,5.87,-75.62,-14.50,0.97,0.71,-17.71
3620,2.69,-70.75,-18.37,0.24,0.25,-16.68
3630,-7.56,-59.38,-11.94,-0.57,-0.31,-16.92
3640,-18.19,-54.13,-4.50,0.35,0.91,-17.56
3650,-27.25,-54.75,-11.56,0.30,1.25,-17.02
3660,-33.63,-53.81,-15.94,-0.50,0.89,-16.14
3670,-33.13,-51.94,-14.63,-0.57,1.25,-15.31
3680,-30.94,-48.50,-15.00,-0.90,1.16,-14.58
3690,-24.62,-43.88,-13.81,-1.16,1.21,-14.12
3700,-16.12,-40.50,-10.50,-1.67,0.93,-13.77
3710,-8.38,-37.06,-3.81,-1.92,0.82,-12.83
3720,-1.81,-28.12,2.06,-1.79,0.89,-13.04
3730,-4.44,-14.38,5.87,-1.59,1.23,-12.74
3740,-5.87,-4.31,5.75,-1.46,1.64,-13.07
3750,-9.56,4.81,4.69,-1.40,2.13,-13.10
3760,-8.63,10.38,3.44,-1.48,2.23,-13.11
3770,-4.37,16.00,3.81,-1.48,2.04,-12.91
3780,0.69,25.87,5.87,-1.32,1.85,-12.82
3790,5.06,38.38,7.75,-1.14,1.77,-13.45
3800,6.37,49.19,10.06,-0.88,2.03,-13.93
3810,5.19,58.63,10.06,-0.39,2.30,-14.50
3820,1.87,68.75,7.12,0.15,2.39,-15.84
3830,-2.62,76.81,3.75,0.11,1.99,-16.68
3840,-6.87,79.50,2.69,0.26,1.87,-17.35
3850,-9.69,79.12,2.19,0.76,1.92,-17.82
3860,-11.25,78.75,-0.44,0.82,1.46,-18.50
3870,-11.94,77.12,-1.62,0.80,1.18,-18.72
3880,-10.94,73.19,1.50,1.00,1.16,-18.73
3890,-6.44,71.25,2.50,1.57,1.60,-18.61
3900,-2.19,73.12,4.31,1.39,1.15,-19.34
3910,2.06,76.87,10.69,1.53,1.43,-19.57
3920,11.81,80.06,16.75,1.41,1.06,-20.48
3930,29.81,74.37,21.87,1.86,1.52,-20.81
3940,25.62,71.87,26.87,2.37,1.60,-22.86
3950,24.75,64.19,28.12,2.80,1.88,-24.27
3960,11.94,54.75,21.37,3.79,2.96,-24.51
3970,0.37,44.75,6.50,3.73,2.76,-24.52
3980,-3.06,43.19,-0.69,3.26,2.04,-23.79
3990,2.00,46.69,-2.62,3.51,1.90,-24.18
4000,8.63,49.44,-4.69,3.68,1.51,-24.75
4010,14.38,47.88,-5.31,3.73,1.00,-25.56
4020,18.31,39.69,-3.94,3.50,0.06,-26.78
4030,21.81,27.06,2.25,3.69,-0.04,-27.27
4040,19.81,16.69,9.50,4.28,0.60,-27.87
4050,10.75,5.87,9.19,4.84,1.40,-28.36
4060,-4.50,-10.19,3.37,4.64,2.00,-28.27
4070,-18.69,-32.38,-3.25,4.30,1.52,-27.08
4080,-26.25,-43.19,-5.87,4.39,1.64,-25.54
4090,-23.19,-43.75,-7.25,3.90,1.68,-23.82
4100,-13.75,-45.50,-7.37,3.60,1.79,-23.56
4110,-5.31,-50.94,-6.31,3.45,2.06,-23.32
4120,-0.06,-58.56,-7.12,3.37,2.15,-22.97
4130,2.50,-66.12,-9.69,2.92,1.84,-21.60
4140,3.56,-70.50,-11.69,3.33,2.00,-21.03
4150,-1.25,-64.37,-17.94,2.83,1.74,-20.71
4160,-10.50,-54.63,-18.06,2.37,1.54,-20.60
4170,-14.69,-53.25,-20.25,2.97,2.48,-20.75
4180,-17.62,-58.06,-27.69,2.56,2.10,-20.29
4190,-20.25,-63.13,-33.06,2.09,1.62,-19.59
4200,-19.31,-64.94,-33.13,1.10,1.15,-18.72
4210,-12.50,-66.06,-23.81,1.14,1.77,-18.13
4220,-8.88,-65.50,-21.69,0.79,1.98,-17.05
4230,-2.19,-63.06,-18.62,-0.09,1.14,-16.88
4240,3.50,-59.38,-9.56,-0.27,0.91,-16.85
4250,0.37,-55.75,-4.81,0.24,1.55,-16.87
4260,-0.81,-55.69,-5.12,0.28,1.77,-16.74
4270,-4.00,-54.13,-5.94,0.01,1.28,-17.06
4280,-5.94,-50.06,-7.75,0.70,2.25,-15.84
4290,-7.75,-42.44,-11.19,-0.59,1.24,-15.82
4300,-5.81,-41.56,-8.31,-0.74,1.38,-15.57
4310,-0.50,-43.31,-5.06,-0.81,1.56,-15.49
4320,-5.62,-39.06,-0.88,-1.02,1.40,-15.39
4330,-5.19,-36.88,-0.37,-0.99,1.83,-14.50
4340,-5.12,-31.69,-0.88,-1.36,1.50,-13.94
4350,-2.50,-23.50,1.94,-1.62,1.22,-13.42
4360,-0.62,-12.00,4.50,-1.32,1.37,-13.48
4370,-3.62,-0.69,6.62,-1.61,1.14,-13.41
4380,-0.62,5.37,9.44,-1.21,1.51,-13.61
4390,2.31,11.00,10.44,-1.39,1.33,-13.48
4400,6.00,16.87,15.56,-1.16,1.28,-13.91
4410,5.75,24.56,19.56,-0.90,1.74,-14.14
4420,4.19,32.75,19.75,-0.94,1.77,-14.42
4430,1.31,40.69,20.75,-0.82,1.77,-14.75
4440,-1.69,49.19,21.56,-0.08,2.31,-15.53
4450,-3.31,58.38,20.50,0.31,2.49,-16.12
4460,-2.69,64.81,16.75,0.67,2.62,-16.85
4470,-2.56,67.12,12.81,0.62,2.25,-17.35
4480,-2.44,68.12,12.00,0.40,1.81,-17.92
4490,0.81,67.62,13.19,0.47,1.81,-18.32
4500,5.87,67.37,14.94,0.60,1.86,-18.51
4510,12.81,66.31,15.31,0.90,1.86,-19.01
4520,17.37,66.75,16.12,0.65,1.17,-20.00
4530,19.12,67.94,23.12,1.42,1.97,-20.37
4540,23.50,63.25,22.25,1.80,2.52,-20.84
4550,24.69,57.44,21.31,1.38,1.99,-20.96
4560,18.19,57.88,22.87,2.72,2.99,-21.35
4570,9.31,62.81,14.50,3.04,2.89,-21.52
4580,4.87,70.75,5.56,2.80,2.50,-21.45
4590,11.06,72.31,3.94,2.69,2.15,-21.83
4600,22.81,67.37,6.06,2.77,1.27,-22.95
4610,30.06,63.31,14.19,2.79,0.79,-23.45
4620,37.88,55.19,20.69,3.63,1.33,-24.38
4630,38.81,46.38,16.19,4.44,1.91,-25.14
4640,38.81,46.38,16.19,4.47,1.40,-26.35
4650,17.75,25.31,5.75,4.73,1.87,-26.49
4660,10.88,10.81,-2.37,5.00,2.18,-26.41
4670,7.06,-0.31,-11.13,4.35,1.27,-25.16
4680,6.81,-5.50,-13.56,3.83,0.51,-24.91
4690,8.13,-8.50,-10.69,3.78,0.40,-24.58
4700,10.50,-12.19,-9.38,3.88,0.32,-24.68
4710,9.44,-17.56,-10.50,2.99,-0.37,-24.58
4720,6.62,-27.56,-3.94,2.69,-0.30,-24.09
4730,3.44,-36.25,3.12,3.45,0.52,-23.91
4740,3.44,-36.25,3.12,3.61,1.09,-23.56
4750,-11.44,-39.38,-0.62,3.61,1.44,-23.21
4760,-12.75,-44.00,-3.81,3.52,1.62,-22.95
4770,-9.25,-49.56,-6.12,3.39,1.77,-22.67
4780,-5.94,-54.00,-11.81,3.85,2.18,-22.59
4790,-5.94,-54.00,-11.81,2.69,1.29,-22.02
4800,-7.12,-57.94,-17.44,2.81,1.45,-21.68
4810,-1.87,-72.06,-19.00,2.62,1.58,-20.99
4820,-0.25,-72.87,-21.25,2.17,1.24,-20.40
4830,-0.69,-71.62,-21.56,1.70,0.92,-19.71
4840,-0.69,-71.62,-21.56,1.47,0.81,-19.40
4850,-10.81,-67.75,-24.62,1.26,0.47,-19.51
4860,-12.69,-68.00,-25.25,0.85,0.39,-18.24
4870,-12.44,-65.81,-16.69,0.34,0.25,-17.51
4880,-7.69,-62.75,-9.75,0.64,0.66,-17.91
4890,-7.69,-62.75,-9.75,0.77,0.96,-17.51
4900,-7.44,-60.69,-11.25,0.08,0.58,-17.09
4910,-8.44,-54.44,-12.69,0.18,1.21,-16.40
4920,-9.38,-49.19,-13.75,-0.31,1.01,-16.55
4930,-14.75,-44.00,-13.56,-0.25,1.22,-16.11
4940,-14.75,-44.00,-13.56,-0.55,1.25,-15.89
4950,-18.12,-40.56,-16.00,-0.93,0.83,-15.26
4960,-25.25,-34.19,-17.44,-1.15,0.89,-14.93
4970,-25.06,-29.44,-12.19,-1.62,0.43,-14.46
4980,-13.25,-26.69,-5.00,-1.39,0.53,-13.90
4990,-13.25,-26.69,-5.00,-1.55,0.56,-13.48
5000,-6.62,-18.94,0.69,-1.68,0.48,-13.55
5010,9.06,-7.25,10.81,-1.61,0.64,-13.59
5020,12.88,-1.94,15.94,-1.12,1.36,-13.76
5030,14.81,3.81,15.81,-0.97,1.45,-13.89
5040,14.81,3.81,15.81,-0.97,1.45,-13.89
5050,11.63,12.69,14.00,-1.08,0.96,-14.10
5060,2.19,29.75,16.37,-0.40,1.26,-14.33
5070,0.31,42.06,16.50,-0.31,1.27,-14.66
5080,1.31,53.19,17.31,-0.31,1.32,-15.11
5090,1.31,53.19,17.31,-0.31,1.32,-15.11
5100,3.62,58.88,18.56,0.27,1.56,-17.16
5110,-0.06,55.00,17.69,0.35,1.31,-17.40
5120,-5.37,55.63,18.25,0.69,1.61,-17.40
5130,-10.81,62.19,15.44,1.06,2.00,-17.58
5140,-10.81,62.19,15.44,1.06,2.00,-17.58
5150,-13.44,69.56,11.88,1.22,1.82,-18.85
5160,-11.56,76.37,11.13,1.22,2.02,-19.29
5170,-6.87,73.69,11.38,1.39,2.20,-19.89
5180,-3.06,70.19,12.50,1.64,2.68,-20.52
5190,-3.06,70.19,12.50,1.64,2.68,-20.52
5200,4.37,63.94,10.50,1.74,2.58,-20.61
5210,8.50,61.63,13.44,1.76,1.73,-21.11
5220,11.00,64.25,12.81,2.65,2.52,-21.96
5230,12.31,69.12,10.38,2.85,2.54,-22.88
5240,12.31,69.12,10.38,2.85,2.54,-22.88
5250,8.56,72.94,8.00,3.71,3.61,-25.43
5260,5.37,49.69,-10.31,3.03,2.32,-25.56
5270,9.44,32.75,-11.31,3.09,1.57,-24.81
5280,18.87,26.37,-11.38,3.47,1.50,-24.23
5290,18.87,26.37,-11.38,3.47,1.50,-24.23
5300,25.62,29.81,-11.69,3.21,0.16,-24.93
5310,21.56,27.19,-1.81,3.91,0.34,-27.05
5320,9.19,14.31,-0.25,4.24,0.67,-27.95
5330,-5.31,-6.12,-1.87,4.34,1.32,-27.46
5340,-5.31,-6.12,-1.87,4.34,1.32,-27.46
5350,-14.06,-27.62,-5.50,4.12,1.17,-26.15
5360,-10.31,-40.44,-7.19,3.62,0.77,-23.74
5370,-6.81,-38.31,-4.06,3.48,1.11,-23.11
5380,-2.75,-39.06,-1.81,3.30,1.33,-23.09
5390,-2.75,-39.06,-1.81,3.30,1.33,-23.09
5400,5.25,-47.00,1.44,3.08,1.74,-22.98
5410,10.38,-67.56,-3.81,3.23,1.95,-22.08
5420,7.62,-72.56,-11.13,3.13,1.94,-21.53
5430,-0.13,-72.69,-13.13,2.08,1.33,-20.63
5440,-0.13,-72.69,-13.13,2.08,1.33,-20.63
5450,-1.62,-73.62,-12.06,2.23,1.50,-20.29
5460,-5.19,-70.81,-20.56,2.00,1.70,-18.68
5470,-5.19,-70.81,-20.56,1.51,1.26,-18.53
5480,-4.94,-65.31,-22.81,0.96,0.81,-18.09
5490,-5.31,-60.50,-21.44,0.96,0.81,-18.09
5500,-5.31,-60.44,-19.87,1.21,1.09,-17.67
5510,-0.06,-62.19,-19.87,0.12,0.33,-16.93
5520,4.69,-55.81,-10.44,0.79,1.34,-17.29
5530,7.00,-50.25,-5.50,-0.10,0.61,-17.76
5540,5.69,-49.50,-8.69,-0.10,0.61,-17.76
5550,-1.81,-48.75,-9.38,0.36,1.44,-16.99
5560,-11.13,-47.13,-12.94,-0.71,0.93,-15.89
5570,-17.56,-45.56,-16.06,-1.07,0.61,-15.79
5580,-22.75,-40.25,-16.31,-1.07,0.57,-15.34
5590,-27.81,-32.69,-14.56,-1.07,0.57,-15.34
5600,-25.94,-29.00,-13.13,-1.53,0.46,-14.94
5610,-17.56,-28.00,-6.12,-2.00,-0.14,-13.95
5620,-7.25,-23.37,4.62,-1.79,0.05,-14.08
5630,0.75,-14.69,14.56,-1.61,0.50,-14.55
5640,2.75,-6.06,21.69,-1.61,0.50,-14.55
5650,0.50,-2.00,23.25,-0.91,1.97,-15.11
5660,-2.50,-0.62,20.00,-0.88,1.77,-14.74
5670,-5.37,4.19,19.69,-0.43,2.05,-14.79
5680,-9.44,14.75,19.44,0.01,2.75,-15.24
5690,-12.81,28.19,17.25,0.01,2.75,-15.24
5700,-11.69,37.38,13.38,0.33,2.88,-15.88
5710,-9.06,41.63,8.19,-0.36,1.82,-16.53
5720,-4.25,41.81,8.75,0.01,1.72,-17.03
5730,0.75,39.25,12.88,0.09,1.48,-17.19
5740,3.87,37.63,14.56,0.09,1.48,-17.19
5750,5.00,37.69,15.81,0.08,1.41,-17.18
5760,6.44,39.69,16.87,0.60,1.28,-17.59
5770,6.81,47.38,18.00,0.96,1.55,-18.32
5780,3.94,59.81,17.87,0.98,1.70,-19.21
5790,0.19,67.62,17.12,0.98,1.70,-19.21
5800,-0.56,62.69,16.62,0.97,2.15,-20.41
5810,2.19,49.00,18.06,1.61,2.80,-19.88
5820,8.31,37.06,17.44,1.71,2.82,-19.30
5830,18.44,34.50,12.63,1.46,2.16,-19.83
5840,21.31,43.94,8.81,1.46,2.16,-19.83
5850,22.87,53.38,7.06,1.46,1.94,-20.52
5860,22.37,58.00,5.56,1.85,1.47,-21.20
5870,24.37,58.94,3.25,1.89,1.25,-22.53
5880,24.19,60.94,3.81,2.11,1.32,-23.34
5890,24.06,58.56,5.00,2.11,1.32,-23.34
5900,22.12,50.25,4.31,2.38,1.52,-23.91
5910,18.31,39.88,0.50,2.23,0.72,-23.92
5920,16.31,31.62,-0.25,2.73,0.94,-23.97
5930,16.87,27.31,3.75,3.22,1.25,-24.21
5940,19.69,26.06,2.75,3.22,1.25,-24.21
5950,19.94,25.75,-0.44,3.02,0.77,-24.60
5960,14.00,24.81,1.56,3.75,1.33,-26.69
5970,4.94,18.31,1.94,3.74,1.53,-26.74
5980,-2.56,2.50,-1.94,3.74,1.55,-26.11
5990,-5.37,-15.56,-5.62,3.74,1.55,-26.11
6000,-6.00,-25.81,-9.50,3.54,1.12,-24.21
6010,-5.94,-26.19,-10.94,3.11,1.16,-23.35
6020,-2.37,-23.75,-11.00,3.04,1.15,-23.42
6030,3.87,-26.12,-9.94,2.82,0.90,-23.71
6040,7.56,-32.88,-8.25,2.82,0.90,-23.71
6050,8.06,-40.75,-4.44,3.13,1.31,-23.69
6060,5.56,-50.06,-7.06,2.60,1.18,-23.11
6070,0.06,-61.00,-15.44,2.06,1.20,-21.74
6080,-11.50,-68.25,-17.94,2.18,1.68,-21.22
6090,-13.81,-77.37,-17.50,2.18,1.68,-21.22
6100,-14.06,-81.94,-20.19,1.79,1.74,-19.76
6110,-13.19,-79.69,-21.75,0.90,0.92,-17.87
6120,-12.19,-72.50,-19.87,0.97,1.23,-17.62
6130,-12.81,-60.81,-18.25,1.37,1.41,-18.36
6140,-14.94,-50.81,-21.75,1.37,1.41,-18.36
6150,-11.75,-47.19,-25.12,0.19,0.11,-18.40
6160,-10.75,-47.25,-18.31,0.79,0.72,-19.34
6170,-14.56,-53.44,-15.69,0.17,0.37,-18.68
6180,-22.31,-63.94,-17.62,0.08,0.88,-16.21
6190,-23.25,-72.25,-16.94,0.08,0.88,-16.21
6200,-18.75,-73.12,-17.69,-0.63,0.58,-15.50
6210,-16.12,-63.81,-12.06,-0.77,0.76,-13.86
6220,-8.69,-50.31,-6.44,-1.20,0.77,-14.22
6230,-7.50,-33.25,-3.06,-1.15,1.03,-14.71
6240,-5.94,-20.19,-0.94,-1.15,1.03,-14.71
6250,-7.06,-12.81,-0.75,-1.37,1.07,-15.11
6260,-4.12,-12.31,1.94,-1.29,1.12,-14.88
6270,-5.00,-10.25,1.62,-2.00,0.57,-14.80
6280,-6.37,-9.13,1.06,-2.14,0.51,-14.44
6290,-5.06,-8.38,6.81,-2.14,0.51,-14.44
6300,-1.62,-6.19,10.88,-1.71,1.02,-13.96
6310,3.00,0.44,11.44,-1.77,0.95,-13.52
6320,7.50,11.19,14.63,-1.30,1.24,-13.76
6330,10.44,23.12,17.31,-1.27,1.24,-13.96
6340,11.94,34.31,18.87,-1.27,1.24,-13.96
6350,14.69,44.69,21.19,-0.51,1.83,-14.85
6360,17.44,55.25,19.50,0.05,2.23,-15.46
6370,17.37,65.50,15.38,0.34,2.22,-16.54
6380,14.81,69.50,10.31,0.45,2.00,-18.20
6390,11.94,66.19,6.44,0.47,1.73,-18.57
6400,9.56,60.63,4.87,0.31,1.28,-18.66
6410,8.25,57.44,5.37,0.46,1.01,-18.61
6420,8.56,58.44,5.87,0.27,0.50,-18.50
6430,10.94,62.13,8.25,0.64,0.61,-18.69
6440,12.25,66.81,8.50,0.72,0.40,-19.07
6450,10.44,74.25,12.50,0.75,0.02,-19.47
6460,6.12,80.62,18.31,1.81,1.11,-21.42
6470,0.94,79.37,19.00,1.89,1.69,-21.21
6480,8.38,72.12,17.62,2.29,1.86,-22.58
6490,7.37,66.50,17.31,2.24,1.81,-22.46
6500,14.88,56.38,15.63,2.86,2.57,-23.02
6510,20.00,47.63,8.31,2.89,2.29,-23.04
6520,21.31,44.75,2.50,2.83,1.66,-23.01
6530,20.25,47.19,1.56,2.73,1.06,-23.35
6540,17.37,47.25,2.94,3.11,1.09,-24.46
6550,16.87,39.38,2.69,3.26,1.03,-24.88
6560,14.94,31.37,2.37,3.64,1.19,-25.34
6570,11.88,24.75,-0.69,3.94,1.29,-25.72
6580,10.19,14.44,-4.25,3.72,0.87,-26.26
6590,8.38,1.75,-6.06,3.47,0.54,-26.05
6600,6.50,-10.44,-5.25,3.19,0.21,-25.55
6610,7.50,-21.56,-2.94,3.03,0.00,-24.91
6620,6.75,-26.06,-2.00,3.18,-0.08,-24.01
6630,1.81,-25.19,-1.50,2.90,-0.09,-23.72
6640,-3.31,-26.44,1.06,2.95,0.13,-23.96
6650,-7.31,-31.87,2.87,3.38,1.22,-23.88
6660,-7.37,-39.44,1.87,3.50,1.72,-23.64
6670,-6.19,-45.94,-2.44,3.73,2.07,-23.42
6680,-6.25,-48.63,-8.50,3.51,2.05,-23.10
6690,-6.56,-51.00,-16.06,3.19,1.87,-22.91
6700,-11.38,-53.81,-21.44,2.42,1.26,-22.21
6710,-10.19,-61.94,-22.06,2.30,1.22,-22.11
6720,-7.81,-71.75,-22.37,1.93,1.31,-21.42
6730,-5.81,-78.81,-22.25,1.44,0.81,-19.96
6740,-7.81,-79.06,-23.06,1.43,0.88,-19.26
6750,-12.69,-73.87,-24.00,0.77,0.42,-18.37
6760,-13.56,-67.81,-22.12,0.42,0.21,-18.29
6770,-13.25,-62.56,-17.81,0.31,0.41,-17.84
6780,-14.19,-58.75,-16.25,0.73,1.08,-17.70
6790,-17.50,-55.75,-15.94,-0.06,0.76,-17.28
6800,-15.56,-54.56,-18.44,0.70,1.44,-17.11
6810,-14.94,-49.38,-25.31,-0.11,0.84,-16.81
6820,-19.94,-42.56,-24.25,-0.22,0.93,-16.66
6830,-22.37,-42.06,-24.25,-0.17,1.27,-16.71
6840,-26.94,-42.31,-25.75,-0.42,1.17,-16.33
6850,-29.19,-44.63,-25.00,-1.53,0.11,-15.38
6860,-27.00,-44.88,-17.50,-1.47,0.08,-14.31
6870,-17.94,-37.38,-13.31,-1.18,0.53,-14.13
6880,-13.69,-25.69,-8.94,-1.90,-0.03,-13.40
6890,2.62,-19.94,-1.81,-1.77,0.05,-13.39
6900,8.81,-9.69,3.37,-1.92,-0.24,-13.20
6910,12.63,-0.50,9.94,-2.29,-0.83,-14.00
6920,11.81,5.12,18.25,-1.77,0.02,-14.63
6930,10.38,3.69,21.81,-1.73,0.12,-14.66
6940,6.62,3.81,25.87,-1.58,0.08,-14.36
6950,-0.44,13.25,29.94,-1.20,0.38,-14.33
6960,-8.63,26.37,30.44,-0.48,1.55,-14.59
6970,-13.06,38.81,28.19,-0.28,1.94,-14.78
6980,-13.75,50.44,25.94,-0.16,2.23,-15.32
6990,-10.13,55.75,22.00,0.09,2.51,-15.78
7000,-4.56,57.50,17.81,0.01,2.03,-16.40
7010,0.94,61.00,15.56,0.04,1.60,-16.98
7020,3.75,64.00,14.69,-0.06,1.09,-17.48
7030,5.00,63.63,16.94,-0.04,0.69,-17.89
7040,2.37,65.75,21.87,0.91,1.03,-18.89
7050,-2.19,70.81,22.19,1.10,1.35,-19.28
7060,-4.12,75.06,22.31,1.34,1.62,-19.91
7070,-4.87,76.12,21.56,1.62,2.05,-20.51
7080,-2.25,70.94,23.06,1.67,2.25,-21.23
7090,3.25,63.00,23.19,1.57,2.13,-21.27
7100,9.00,59.38,21.12,2.43,2.60,-21.35
7110,12.56,58.94,17.81,2.05,2.19,-21.54
7120,13.56,56.63,17.31,2.41,2.02,-22.36
7130,8.69,56.00,15.63,2.71,2.21,-22.72
7140,3.25,55.44,12.13,3.16,2.42,-23.10
7150,-0.13,52.38,8.06,3.26,2.48,-23.41
7160,3.31,45.88,9.94,2.77,2.04,-23.52
7170,16.00,36.38,14.19,3.58,2.85,-24.00
7180,25.87,27.37,7.25,4.19,3.48,-24.02
7190,32.88,21.44,-0.37,3.29,2.00,-24.41
7200,32.56,17.06,-2.50,3.39,2.05,-24.52
7210,32.56,17.06,-2.50,3.38,1.70,-24.69
7220,29.31,10.63,-6.50,3.09,0.89,-24.65
7230,6.87,4.62,-9.81,2.58,0.18,-24.66
7240,-0.75,-2.12,-5.69,2.55,0.27,-24.52
7250,-1.94,-12.56,-2.37,2.89,0.45,-24.33
7260,-1.94,-12.56,-2.37,3.10,0.39,-23.92
7270,-1.25,-19.12,-0.94,3.18,0.66,-23.73
7280,-2.50,-19.19,0.62,3.38,1.09,-23.99
7290,-1.69,-25.31,0.75,3.48,1.55,-23.98
7300,-1.44,-33.13,-1.31,3.63,1.91,-24.02
7310,-1.44,-33.13,-1.31,3.49,2.39,-23.26
7320,0.50,-43.50,-1.62,3.50,2.48,-22.59
7330,8.88,-63.44,-13.50,3.00,1.89,-21.95
7340,6.12,-64.25,-21.00,3.04,1.74,-21.25
7350,-4.81,-58.31,-21.37,2.07,0.80,-20.30
7360,-4.81,-58.31,-21.37,1.97,1.18,-20.17
7370,-6.25,-57.50,-18.75,2.27,1.60,-20.10
7380,-3.56,-59.50,-22.19,1.97,1.26,-19.71
7390,-2.12,-59.56,-21.19,1.65,0.92,-19.20
7400,-5.44,-58.06,-20.87,1.39,0.90,-18.96
7410,-5.44,-58.06,-20.87,1.41,0.99,-19.05
7420,-7.50,-58.13,-20.31,1.54,1.41,-17.91
7430,-6.75,-56.63,-22.87,0.20,-0.27,-17.26
7440,-2.50,-51.63,-15.56,0.62,-0.08,-17.36
7450,-5.69,-47.00,-14.38,0.44,-0.39,-17.80
7460,-5.69,-47.00,-14.38,-0.19,-0.49,-17.42
7470,-9.94,-51.75,-7.50,-0.06,0.53,-16.92
7480,-10.38,-54.31,-7.19,-0.19,0.50,-16.51
7490,-13.75,-50.19,-6.25,-0.48,0.43,-15.99
7500,-14.94,-43.88,-6.44,-0.69,0.58,-15.23
7510,-14.94,-43.88,-6.44,-0.93,0.42,-15.05
7520,-17.25,-33.38,-6.25,-1.31,0.22,-14.95
7530,-16.81,-18.62,2.12,-1.28,0.53,-14.95
7540,-14.31,-16.56,3.56,-1.19,0.55,-14.81
7550,-8.88,-16.50,4.31,-1.54,0.16,-14.31
7560,-8.88,-16.50,4.31,-1.89,-0.16,-14.14
7570,2.56,-6.37,18.50,-1.50,0.40,-13.99
7580,3.87,0.44,21.56,-1.36,0.95,-13.99
7590,3.00,7.81,23.69,-1.23,1.17,-14.05
7600,1.56,15.06,24.44,-1.06,1.50,-14.12
7610,1.56,15.06,24.44,-0.97,1.57,-14.21
7620,-2.56,24.50,22.94,-0.75,1.75,-14.59
7630,-10.50,45.69,18.31,-0.65,1.61,-14.68
7640,-10.25,53.44,17.19,-0.64,1.21,-15.03
7650,-7.37,58.31,18.62,-0.43,1.01,-15.37
7660,-7.37,58.31,18.62,-0.34,0.47,-16.02
7670,3.44,65.31,25.37,-0.06,0.50,-16.57
7680,4.06,71.69,27.87,0.30,0.83,-17.18
7690,1.00,76.56,27.81,0.48,0.83,-18.01
7700,-3.12,80.75,29.94,0.73,0.46,-19.36
7710,-3.12,80.75,29.94,1.38,1.11,-19.69
7720,-6.81,84.62,37.31,2.64,2.12,-20.81
7730,3.31,81.19,37.00,2.72,2.34,-21.15
7740,9.75,80.62,46.13,3.32,3.36,-23.06
7750,12.88,72.81,45.44,4.02,4.58,-24.01
7760,12.88,72.81,45.44,4.62,5.32,-24.26
7770,17.81,49.63,11.88,4.00,4.77,-24.14
7780,23.37,44.13,-0.88,3.45,3.90,-24.22
7790,23.37,44.13,-0.88,3.12,3.12,-24.33
7800,33.44,21.94,-8.00,3.08,2.60,-24.37
7810,33.44,21.94,-8.00,2.89,1.82,-23.20
7820,34.25,11.88,-13.38,2.60,1.12,-22.74
7830,32.31,11.19,-16.81,2.59,0.71,-22.91
7840,26.81,20.00,-15.38,2.73,0.87,-23.50
7850,12.63,26.87,-16.69,2.93,0.62,-24.90
7860,12.63,26.87,-16.69,2.50,-0.12,-25.19
7870,5.75,17.31,-17.69,2.46,-0.40,-24.97
7880,0.06,3.00,-12.75,2.64,-0.33,-24.52
7890,-3.31,-9.44,-8.19,2.65,-0.39,-23.05
7900,4.06,-20.56,-0.94,2.59,-0.35,-22.50
7910,4.06,-20.56,-0.94,2.69,0.10,-22.67
7920,13.13,-17.19,4.81,3.21,0.46,-23.31
7930,16.50,-9.88,9.13,3.90,1.47,-25.26
7940,17.06,-10.63,7.62,3.80,1.49,-25.82
7950,11.06,-42.88,0.06,3.82,1.77,-25.82
7960,11.06,-42.88,0.06,3.81,1.76,-25.15
7970,5.50,-64.37,-5.50,3.43,1.23,-22.62
7980,3.37,-78.31,-9.19,3.64,1.60,-21.78
7990,1.81,-78.94,-16.19,2.32,0.64,-21.05
8000,-6.06,-72.37,-16.94,2.10,0.51,-20.80
8010,-6.06,-72.37,-16.94,2.11,0.96,-20.31
8020,-9.88,-71.94,-20.50,1.26,0.22,-19.74
8030,-15.06,-70.75,-23.00,1.02,0.37,-19.38
8040,-15.94,-71.50,-18.94,1.08,0.72,-18.65
8050,-17.44,-73.31,-17.87,0.79,0.66,-18.18
8060,-17.44,-73.31,-17.87,0.69,0.76,-17.64
8070,-17.81,-72.44,-18.31,0.82,1.06,-17.21
8080,-14.13,-71.75,-22.25,-0.45,-0.30,-16.66
8090,-7.12,-67.87,-24.25,-0.41,0.22,-15.64
8100,-10.13,-49.13,-10.63,-0.11,0.37,-17.07
8110,-10.13,-49.13,-10.63,0.55,1.54,-16.39
8120,-13.56,-42.56,-16.12,-0.54,0.61,-16.67
8130,-18.81,-40.44,-19.37,-0.85,0.29,-16.19
8140,-20.19,-42.56,-19.75,-1.15,0.00,-15.85
8150,-17.12,-43.44,-13.88,-1.38,-0.21,-15.08
8160,-17.12,-43.44,-13.88,-1.71,-0.20,-13.57
8170,-6.12,-41.06,-8.50,-2.14,-0.55,-13.94
8180,5.25,-31.69,-1.06,-1.72,-0.02,-13.84
8190,10.69,-19.00,6.50,-1.71,0.32,-13.97
8200,8.88,-5.50,10.63,-2.22,-0.13,-13.98
8210,8.88,-5.50,10.63,-1.75,0.47,-13.94
8220,9.31,-1.50,16.44,-1.45,0.88,-13.88
8230,8.88,3.94,17.25,-1.36,0.92,-13.98
8240,5.62,12.75,16.00,-1.20,0.89,-14.37
8250,-6.25,36.13,17.31,-0.87,1.26,-14.58
8260,-6.25,36.13,17.31,-0.56,1.57,-15.16
8270,-8.25,45.94,16.25,-0.37,1.74,-15.56
8280,-10.19,54.38,14.44,-0.11,1.70,-16.58
8290,-10.13,58.13,12.06,-0.16,1.51,-16.75
8300,-3.62,55.88,11.31,-0.01,1.46,-16.93
8310,-3.62,55.88,11.31,0.23,1.63,-17.05
8320,-1.50,56.75,12.31,0.73,2.27,-17.51
8330,0.50,60.13,12.94,0.71,2.52,-17.76
8340,3.50,62.75,11.06,0.81,2.79,-18.12
8350,10.75,66.56,2.94,0.96,2.22,-18.50
8360,10.75,66.56,2.94,0.74,1.52,-18.51
8370,19.81,72.00,0.50,0.64,0.83,-18.60
8380,44.94,73.12,7.62,1.56,1.05,-19.49
8390,78.44,72.12,16.31,2.36,0.96,-22.43
8400,94.50,77.00,15.38,2.47,1.22,-22.91
8410,94.50,77.00,15.38,2.35,1.10,-25.08
8420,72.06,74.19,10.13,2.38,1.55,-25.20
8430,38.06,58.06,2.37,2.65,1.42,-23.50
8440,9.31,35.63,-11.25,2.54,0.40,-21.62
8450,2.19,45.63,-33.56,1.92,-1.00,-20.92
8460,2.19,45.63,-33.56,1.76,-2.10,-21.85
8470,11.75,68.06,-27.37,2.81,-1.82,-25.26
8480,18.44,78.31,-21.87,2.42,-2.50,-26.97
8490,20.87,68.12,-21.75,2.19,-2.85,-27.47
8500,8.25,9.25,-7.19,2.30,-2.82,-27.31
8510,8.25,9.25,-7.19,2.49,-2.75,-25.19
8520,0.00,-10.88,-0.88,2.70,-2.48,-24.36
8530,-5.62,-16.06,5.31,2.82,-2.10,-24.07
8540,-9.44,-10.69,10.88,2.99,-1.49,-24.28
8550,-13.75,-14.94,14.06,2.92,-0.90,-25.02
8560,-13.75,-14.94,14.06,2.65,-0.73,-24.61
8570,-16.62,-27.62,14.19,2.85,-0.36,-23.91
8580,-16.06,-39.38,15.00,2.93,0.18,-23.08
8590,-12.31,-44.38,12.75,2.74,0.43,-22.03
8600,-8.31,-43.19,8.50,2.65,0.38,-21.98
8610,-6.19,-39.75,4.31,2.47,0.19,-21.93
8620,-4.44,-38.88,1.31,2.39,0.02,-22.09
8630,-4.12,-41.00,0.44,2.36,-0.03,-21.97
8640,-3.56,-47.13,0.94,2.35,0.11,-21.75
8650,-4.00,-55.69,2.00,2.57,0.61,-21.48
8660,-4.00,-55.69,2.00,2.40,0.76,-20.71
8670,-3.56,-59.56,-1.25,2.27,0.64,-20.39
8680,-1.81,-61.81,-4.44,2.11,0.60,-20.19
8690,-1.87,-61.19,-7.69,1.78,0.44,-20.18
8700,-7.62,-59.56,-11.38,1.13,0.17,-19.47
8710,-9.38,-61.00,-11.56,0.99,0.28,-18.93
8720,-10.13,-65.06,-9.31,0.94,0.32,-18.58
8730,-8.75,-69.19,-8.25,0.76,0.30,-18.15
8740,-9.69,-69.81,-8.75,0.65,0.61,-17.15
8750,-23.31,-59.56,-14.31,0.78,0.95,-17.02
8760,-23.31,-59.56,-14.31,0.45,0.96,-16.69
8770,-34.38,-47.94,-19.00,0.17,0.94,-16.67
8780,-47.06,-35.88,-20.87,0.45,1.83,-16.67
8790,-55.75,-30.00,-26.94,-0.25,1.57,-16.28
8800,-63.00,-28.31,-32.44,-0.55,1.74,-15.43
8810,-59.50,-32.69,-31.62,-0.80,2.08,-14.82
8820,-46.44,-38.50,-29.75,-1.01,1.76,-13.28
8830,-31.00,-36.25,-27.69,-1.23,1.51,-12.75
8840,-13.00,-26.06,-24.25,-1.30,1.31,-12.47
8850,27.25,-1.50,-14.75,-1.59,0.31,-12.89
8860,27.25,-1.50,-14.75,-1.43,-0.16,-13.95
8870,35.06,9.06,-8.19,-2.12,-1.53,-15.40
8880,32.44,11.00,-3.62,-1.36,-0.84,-14.75
8890,35.06,6.31,0.56,-1.64,-2.00,-14.62
8900,27.37,9.25,6.19,-1.19,-1.89,-14.53
8910,26.69,13.81,11.94,-1.14,-2.12,-14.95
8920,20.31,24.56,16.06,-1.05,-2.18,-15.30
8930,9.31,36.13,21.62,-0.32,-1.35,-16.10
8940,-3.62,47.75,25.37,-0.09,-1.05,-16.72
8950,-12.56,56.94,26.62,0.04,-0.65,-17.29
8960,-18.69,62.06,28.87,0.35,-0.20,-17.72
8970,-19.56,61.38,30.56,0.66,0.36,-18.44
8980,-17.87,57.63,30.56,0.74,0.52,-18.57
8990,-17.56,54.63,29.06,0.77,0.58,-18.61
9000,-19.25,54.13,28.12,1.06,0.88,-18.63
9010,-20.62,56.25,27.06,1.31,1.29,-18.87
9020,-21.69,61.56,25.00,1.05,1.62,-19.12
9030,-21.06,68.75,26.50,1.78,2.36,-19.64
9040,-14.50,71.75,26.06,1.41,1.73,-20.43
9050,-14.50,71.75,26.06,2.63,3.14,-21.95
9060,-2.50,80.44,28.25,2.67,3.42,-22.57
9070,3.12,77.81,22.25,2.66,3.33,-23.23
9080,12.19,62.81,14.38,2.51,2.90,-23.22
9090,18.81,47.50,8.44,2.10,1.54,-22.98
9100,23.69,39.94,6.87,2.23,1.35,-22.88
9110,25.25,40.81,13.38,3.12,2.14,-23.75
9120,29.81,41.00,15.44,3.80,2.71,-24.10
9130,32.56,38.75,6.50,3.44,2.08,-25.09
9140,30.94,35.50,0.50,3.52,1.98,-25.45
9150,30.94,35.50,0.50,3.37,1.48,-25.37
9160,31.44,12.69,-10.25,3.08,0.85,-25.05
9170,28.87,5.69,-12.00,2.82,0.35,-24.79
9180,24.31,2.44,-9.31,2.93,0.42,-24.79
9190,19.94,-2.25,-7.87,3.11,0.37,-24.79
9200,19.94,-2.25,-7.87,2.96,-0.51,-24.17
9210,11.38,-15.31,-10.94,3.13,-0.54,-23.93
9220,10.00,-19.31,-8.19,3.23,-0.23,-23.95
9230,11.88,-22.94,-5.37,3.24,0.01,-23.89
9240,15.75,-29.87,-3.56,3.30,0.56,-23.59
9250,19.12,-39.38,-4.37,3.07,0.43,-23.18
9260,21.19,-49.13,-6.50,2.82,0.05,-22.73
9270,20.50,-57.63,-8.13,3.23,0.65,-22.27
9280,15.63,-62.25,-13.75,2.22,-0.34,-21.16
9290,3.75,-64.19,-12.56,2.51,0.07,-20.83
9300,3.75,-64.19,-12.56,2.31,0.12,-20.23
9310,-5.50,-65.50,-11.88,1.84,-0.16,-19.66
9320,-13.38,-63.25,-18.31,1.52,-0.21,-19.02
9330,-8.88,-64.00,-17.37,1.17,-0.28,-18.72
9340,-3.25,-66.37,-16.25,1.00,-0.24,-18.35
9350,-3.25,-66.37,-16.25,1.17,-0.01,-18.36
9360,0.31,-68.94,-14.19,-0.18,-1.11,-16.92
9370,1.69,-66.62,-17.62,-0.08,-0.99,-16.02
9380,3.31,-59.00,-8.50,0.30,-0.50,-16.55
9390,6.19,-49.50,-4.44,0.63,-0.14,-16.51
9400,6.19,-49.50,-4.44,-0.13,-1.03,-16.64
9410,2.56,-42.56,-9.44,-0.62,-1.24,-16.15
9420,-14.75,-36.38,-9.00,-0.78,-1.14,-16.02
9430,-18.12,-35.75,-5.37,-0.82,-1.06,-15.45
9440,-21.19,-35.19,-1.50,-0.88,-0.74,-14.30
9450,-21.19,-35.19,-1.50,-1.36,-1.07,-13.66
9460,-17.75,-34.50,-0.06,-1.39,-1.01,-13.27
9470,0.19,-21.00,13.19,-0.69,-0.05,-13.60
9480,6.69,-9.38,18.62,-0.75,-0.13,-13.75
9490,9.00,2.44,18.12,-0.75,-0.17,-14.17
9500,9.00,2.44,18.12,-0.75,-0.17,-14.17
9510,9.38,13.13,18.19,-0.01,-0.14,-15.43
9520,0.94,25.62,18.37,0.06,-0.14,-15.57
9530,-5.62,29.56,18.31,0.26,0.25,-15.54
9540,-9.75,33.06,20.06,0.66,0.76,-15.61
9550,-9.75,33.06,20.06,0.66,0.76,-15.61
9560,-11.69,38.44,19.94,1.10,1.37,-16.57
9570,-15.00,57.13,11.81,1.00,1.28,-17.16
9580,-16.25,62.44,6.69,0.76,0.99,-17.67
9590,-18.75,65.12,3.31,0.47,0.74,-18.54
9600,-18.75,65.12,3.31,0.47,0.74,-18.54
9610,-20.87,65.44,2.44,0.58,0.78,-18.75
9620,-20.81,66.62,2.31,1.06,0.91,-19.17
9630,-13.25,72.81,3.06,1.42,1.04,-20.42
9640,0.50,77.31,7.00,1.42,0.94,-21.08
9650,0.50,77.31,7.00,1.42,0.94,-21.08
9660,12.56,79.56,4.94,1.76,0.56,-22.82
9670,24.19,76.87,2.00,1.58,0.10,-24.22
9680,19.25,74.50,2.81,1.94,0.10,-24.44
9690,18.94,65.94,11.50,3.17,1.21,-25.15
9700,18.94,65.94,11.50,3.17,1.21,-25.15
9710,25.62,51.13,13.13,3.39,1.16,-25.35
9720,25.25,32.75,3.87,3.54,0.97,-25.94
9730,21.69,25.37,1.50,3.64,0.81,-26.01
9740,18.37,16.94,-2.50,3.97,1.03,-26.13
9750,18.37,16.94,-2.50,3.97,1.03,-26.13
9760,13.81,10.94,-7.19,3.41,0.31,-25.61
9770,5.50,-6.56,-17.50,3.22,-0.13,-25.16
9780,2.44,-16.94,-18.00,2.85,-0.75,-23.92
9790,3.31,-24.75,-16.12,2.87,-0.85,-23.53
9800,3.31,-24.75,-16.12,2.87,-0.85,-23.53
9810,4.87,-28.87,-12.13,2.83,-0.82,-23.39
9820,5.94,-35.75,-5.62,2.84,0.10,-22.80
9830,5.69,-43.13,-3.87,2.75,0.11,-22.48
9840,4.94,-51.50,-4.44,2.83,0.05,-22.08
9850,4.94,-51.50,-4.44,2.83,0.05,-22.08
9860,2.31,-58.13,-6.25,3.22,0.74,-21.64
9870,-13.31,-62.00,-12.75,2.34,0.16,-20.31
9880,-14.88,-66.00,-9.19,2.35,0.54,-19.79
9890,-14.94,-67.19,-12.38,1.70,-0.03,-19.20
9900,-14.94,-67.19,-12.38,1.70,-0.03,-19.20
9910,-12.06,-67.75,-13.75,1.59,-0.02,-18.46
9920,-7.31,-64.12,-9.75,1.19,0.13,-18.35
9930,-10.38,-60.81,-8.94,1.06,0.34,-18.21
9940,-14.06,-61.31,-9.38,0.88,0.33,-17.63
9950,-14.06,-61.31,-9.38,0.88,0.33,-17.63
9960,-16.94,-61.38,-12.31,0.63,0.43,-17.08
9970,-24.06,-53.81,-15.06,0.14,0.03,-16.94
9980,-28.50,-45.44,-17.25,-0.35,-0.26,-16.75
9990,-28.25,-39.19,-18.19,-0.43,-0.10,-16.77
10000,-25.06,-35.94,-15.19,-0.43,-0.10,-16.77
10010,-18.37,-36.56,-12.13,-0.59,-0.12,-16.44
10020,-10.69,-37.00,-9.56,-1.16,-0.86,-16.33
10030,-8.56,-33.63,-9.50,-1.22,-0.65,-15.78
10040,-10.25,-28.62,-8.50,-1.63,-0.74,-15.68
10050,-13.25,-24.69,-4.44,-1.63,-0.74,-15.68
10060,-11.81,-25.56,-0.06,-1.62,-0.56,-14.72
10070,-9.00,-26.81,5.75,-1.48,0.26,-13.81
10080,-8.06,-22.19,11.19,-1.30,1.00,-13.23
10090,-6.69,-13.81,16.50,-1.01,1.33,-12.57
10100,-1.12,-7.87,17.25,-1.01,1.33,-12.57
10110,4.44,6.06,17.50,-0.57,1.73,-12.99
10120,9.81,28.75,17.56,0.00,2.15,-14.81
10130,15.25,48.25,14.06,0.34,1.46,-16.67
10140,21.75,59.44,7.94,0.46,0.72,-17.38
10150,27.69,63.19,2.62,0.46,0.72,-17.38
10160,29.44,64.12,-2.31,0.43,-0.20,-17.87
10170,28.50,63.56,-4.62,0.52,-1.92,-18.88
10180,25.81,62.06,-2.81,0.70,-1.92,-19.39
10190,22.06,63.38,1.69,0.83,-1.55,-19.97
10200,15.31,66.81,7.44,0.83,-1.55,-19.97
10210,6.37,66.69,12.81,1.12,-0.99,-20.36
10220,-2.81,64.00,16.75,1.41,-0.22,-20.44
10230,-7.19,59.88,19.81,2.00,0.71,-20.91
10240,-8.38,55.50,26.31,1.83,0.79,-20.85
10250,-4.56,51.44,25.75,1.83,0.79,-20.85
10260,-0.69,47.00,22.31,1.76,0.95,-20.97
10270,2.75,44.81,22.81,1.89,0.87,-21.64
10280,4.31,45.25,23.69,2.65,1.50,-22.06
10290,5.37,46.00,26.31,2.44,1.36,-23.13
10300,5.19,47.06,23.19,2.44,1.36,-23.13
10310,4.87,45.44,16.44,2.53,1.39,-23.18
10320,6.75,40.38,13.38,2.53,0.83,-23.85
10330,9.69,32.56,7.87,2.64,0.90,-23.99
10340,10.88,25.31,4.44,2.95,1.05,-24.08
10350,11.13,20.12,4.25,2.95,1.05,-24.08
10360,11.81,15.19,2.37,3.18,1.00,-24.20
10370,11.25,11.69,-2.50,3.42,0.17,-25.19
10380,7.31,11.88,-7.50,3.39,0.00,-25.89
10390,1.50,12.94,-10.25,3.33,0.00,-26.16
10400,-4.81,9.38,-12.19,3.33,0.00,-26.16
10410,-10.88,-4.00,-14.19,3.26,0.12,-25.10
10420,-11.75,-21.19,-15.63,3.10,0.42,-23.77
10430,-11.44,-32.00,-15.44,2.91,0.47,-23.12
10440,-9.25,-37.75,-14.75,2.92,0.60,-22.43
10450,-3.44,-43.56,-13.56,2.92,0.60,-22.43
10460,2.44,-48.69,-13.63,2.74,0.47,-22.17
10470,6.06,-52.81,-15.13,3.18,1.11,-21.60
10480,6.12,-56.25,-17.19,1.62,-0.47,-20.94
10490,2.69,-58.88,-24.94,2.20,0.42,-20.67
10500,-5.37,-60.94,-22.25,2.20,0.42,-20.67
10510,-9.31,-66.19,-17.37,2.13,0.74,-20.06
10520,-11.00,-71.69,-20.87,1.33,0.42,-18.15
10530,-9.38,-73.75,-22.25,1.05,0.31,-17.90
10540,-6.44,-70.12,-21.00,0.47,-0.13,-17.63
10550,-5.12,-65.12,-22.50,0.47,-0.13,-17.63
10560,-5.87,-61.44,-22.06,0.32,-0.09,-17.19
10570,-2.94,-62.00,-20.81,-0.12,-0.31,-15.63
10580,-1.75,-61.25,-20.19,-0.63,-0.75,-15.55
10590,-0.69,-57.69,-21.37,-0.72,-0.87,-15.45
10600,-0.31,-50.25,-18.19,-0.72,-0.87,-15.45
10610,0.88,-42.38,-10.31,-0.28,0.01,-14.71
10620,-1.31,-35.38,-7.25,-1.01,-0.64,-14.42
10630,-3.50,-29.81,-8.75,-1.19,-0.47,-14.03
10640,-4.50,-25.44,-6.62,-1.39,-0.71,-13.48
10650,-7.87,-21.87,-3.00,-1.39,-0.71,-13.48
10660,-6.62,-21.06,-0.25,-1.55,-0.93,-12.80
10670,-2.00,-15.19,5.75,-0.93,-0.21,-12.63
10680,6.87,-4.56,12.13,-0.82,-0.44,-13.04
10690,15.75,8.69,14.50,-0.82,-0.68,-13.64
10700,20.06,23.81,15.31,-0.82,-0.68,-13.64
10710,21.62,36.69,17.31,-0.23,-0.78,-14.57
10720,18.00,49.00,20.12,0.35,-0.44,-16.66
10730,12.56,55.88,21.44,0.73,0.06,-16.83
10740,7.50,56.63,24.19,0.90,0.20,-16.80
10750,4.62,53.75,24.50,0.90,0.20,-16.80
10760,2.56,53.94,21.19,0.46,-0.38,-16.87
10770,0.44,60.25,18.69,0.26,-0.56,-17.60
10780,-1.94,68.75,18.62,0.34,-0.63,-17.98
10790,-3.69,74.25,19.94,0.90,-0.35,-19.18
10800,-4.94,81.25,24.31,0.90,-0.35,-19.18
10810,-7.69,90.31,30.62,2.26,0.95,-20.34
10820,-5.56,96.37,34.81,2.93,1.78,-22.04
10830,-4.62,97.06,27.44,2.22,1.95,-23.23
10840,-4.87,93.44,22.56,3.52,2.77,-23.41
10850,-0.75,82.87,27.25,3.52,2.77,-23.41
10860,9.00,64.37,28.56,4.81,3.79,-23.58
10870,21.31,48.38,12.69,4.49,1.39,-24.65
10880,27.50,50.50,-2.25,5.28,1.36,-25.78
10890,26.25,65.31,-5.87,6.56,-1.89,-23.04
10900,25.06,72.69,-13.38,6.56,-1.89,-23.04
10910,97.69,133.62,-9.25,8.91,6.80,-43.13
10920,156.94,177.94,-6.12,1.17,-3.11,-38.17
10930,124.69,16.12,-68.94,3.07,-5.12,-24.72
10940,-9.19,-128.44,-54.31,3.69,-1.87,-16.83
10950,-81.87,-156.50,-11.31,3.69,-1.87,-16.83
10960,-67.56,-147.31,-12.56,2.53,-2.52,-15.36
10970,-35.06,-102.87,-18.19,2.04,-2.86,-16.32
10980,-15.56,-33.06,-9.19,2.57,-1.87,-18.42
10990,-7.44,22.12,0.44,3.39,-0.10,-24.06
11000,-0.13,33.00,2.06,3.17,0.14,-25.60
11010,0.06,0.62,-2.31,3.05,-0.24,-25.28
11020,-7.25,-52.06,-5.25,3.25,-0.04,-23.52
11030,-14.06,-93.19,-7.69,2.79,-0.27,-19.11
11040,-20.25,-105.62,-4.75,2.88,0.39,-17.99
11050,-24.19,-97.62,-7.69,2.30,0.30,-17.02
11060,-26.19,-80.69,-15.75,1.60,-0.21,-16.62
11070,-25.44,-63.88,-19.56,0.99,-0.38,-16.61
11080,-26.50,-54.31,-19.75,0.56,-0.66,-16.34
11090,-25.81,-54.25,-18.44,0.17,-0.96,-15.75
11100,-21.81,-57.75,-13.44,0.11,-0.95,-15.12
11110,-17.94,-55.69,-7.06,-0.16,-0.64,-14.01
11120,-12.75,-48.25,-1.56,-0.19,-0.26,-13.78
11130,-4.31,-39.13,3.12,-0.26,0.05,-13.66
11140,3.31,-30.50,5.25,-0.16,0.04,-13.60
11150,6.00,-21.12,4.94,-0.43,-0.46,-13.58
11160,3.25,-9.31,6.56,-0.34,-0.47,-13.74
11170,0.06,2.19,7.62,-0.04,-0.43,-13.89
11180,-2.37,13.06,7.12,-0.22,-0.79,-14.14
11190,-3.56,21.25,6.69,0.08,-0.80,-14.38
11200,-3.75,30.12,8.50,0.08,-0.84,-14.71
11210,-4.06,42.75,10.88,-0.02,-0.72,-15.12
11220,-0.69,51.50,14.94,0.61,0.15,-16.39
11230,3.00,56.94,19.75,0.96,0.46,-17.06
11240,1.31,66.31,21.44,1.38,0.61,-18.03
11250,-3.69,81.25,23.50,1.86,1.10,-19.30
11260,-10.81,94.12,24.75,3.50,2.40,-21.64
11270,-10.56,94.00,16.37,3.48,1.42,-22.49
11280,-4.12,86.00,3.06,3.28,0.13,-23.29
11290,8.94,74.31,-0.62,3.43,-0.43,-24.09
11300,22.00,58.81,4.69,4.10,-0.05,-25.70
11310,26.00,39.38,8.00,4.34,0.25,-25.40
11320,17.31,21.56,6.12,4.22,0.05,-25.25
11330,2.37,11.50,2.87,3.70,-0.03,-24.69
11340,-9.38,4.31,2.69,3.96,0.83,-23.98
11350,-15.38,-2.44,-0.75,3.36,0.40,-23.49
11360,-17.00,-11.25,-6.62,2.93,0.08,-22.93
11370,-17.31,-18.87,-8.13,2.67,0.15,-22.42
11380,-18.25,-24.31,-6.56,2.58,0.55,-21.45
11390,-19.06,-28.62,-6.37,2.36,0.52,-20.79
11400,-18.25,-32.81,-8.31,2.07,0.29,-20.11
11410,-17.25,-34.25,-9.00,1.82,0.00,-19.52
11420,-16.19,-32.44,-7.69,1.50,-0.28,-18.98
11430,-16.12,-28.87,-4.62,1.43,-0.21,-18.93
11440,-17.56,-26.62,-2.25,1.35,0.00,-18.74
11450,-20.62,-27.31,-0.56,0.61,0.05,-17.43
11460,-20.25,-33.88,0.62,0.46,-0.04,-16.50
11470,-16.06,-42.38,3.81,0.42,-0.40,-15.38
11480,-9.63,-43.38,8.31,0.31,-0.72,-14.52
11490,0.25,-32.00,15.13,0.37,-0.69,-13.51
11500,14.06,-14.25,23.06,0.52,-0.68,-13.41
11510,28.81,2.75,30.75,0.90,-0.80,-13.63
11520,37.44,29.56,38.25,1.50,-0.36,-14.76
11530,35.44,66.37,46.50,3.56,1.40,-18.62
11540,33.50,93.31,54.50,3.76,1.76,-20.11
11550,18.06,112.81,46.63,3.39,1.92,-21.51
11560,6.44,104.50,35.75,2.92,1.56,-22.08
11570,0.25,73.12,27.87,2.20,0.34,-21.30
11580,-3.56,35.31,25.56,2.14,-0.41,-20.06
11590,-2.56,3.44,29.75,2.10,-0.95,-19.08
11600,2.87,-3.37,39.13,2.64,-0.89,-19.06
11610,8.63,10.50,49.88,4.69,1.10,-19.95
11620,11.63,29.87,50.44,5.03,1.70,-20.86
11630,15.00,41.88,39.13,4.43,1.86,-20.98
11640,16.12,40.06,24.62,3.63,1.10,-20.69
11650,24.62,25.75,15.75,4.07,-1.33,-20.38
11660,37.50,45.31,16.50,5.30,-0.55,-22.33
11670,35.13,115.06,22.62,5.50,0.22,-23.72
11680,26.69,131.62,14.44,4.50,-0.69,-24.15
11690,14.06,78.56,6.56,2.98,-2.95,-22.16
11700,5.12,12.25,13.63,3.44,-2.41,-20.73
11710,1.06,-28.31,27.75,3.60,-1.91,-19.91
11720,1.44,-56.31,35.88,3.68,-1.79,-18.81
11730,2.25,-76.06,44.69,4.78,0.54,-16.89
11740,8.94,-84.31,50.44,4.76,1.83,-15.83
11750,25.75,-71.87,42.88,4.08,3.90,-15.65
11760,57.19,-49.88,15.00,1.76,1.04,-13.43
11770,83.12,-34.13,3.25,3.20,0.37,-14.44
11780,125.19,-37.81,-1.06,2.88,-0.87,-14.18
11790,134.69,-56.13,-11.31,2.15,-2.28,-13.70
11800,119.75,-21.12,-14.25,1.64,-5.71,-14.13
11810,83.25,93.31,1.37,4.37,-5.47,-14.32
11820,72.75,205.69,25.00,6.84,-5.24,-15.72
11830,110.81,215.44,29.94,28.65,-7.14,-38.06
11840,4.25,-208.75,-8.50,-0.33,-2.95,-18.40
11850,148.25,-298.62,-28.44,3.14,-0.96,-11.30
11860,3.19,-231.94,-16.37,3.77,-2.25,-8.90
11870,12.25,-184.06,-21.25,4.00,-3.43,-10.33
11880,23.62,-83.12,-26.12,6.54,0.07,-7.84
11890,-34.19,-212.50,2.81,0.47,-5.59,-23.76
11900,71.81,-219.19,-33.50,-3.46,-9.09,-29.37
11910,-95.19,-142.44,-22.62,-0.36,-3.45,-12.41
11920,-146.50,-29.19,-15.56,-1.03,-3.67,-16.84
11930,-94.44,6.00,-3.75,-0.78,-2.82,-18.45
11940,-55.63,16.69,-6.19,-2.13,-3.75,-19.01
11950,10.31,25.31,-13.19,0.63,-2.72,-21.26
11960,38.50,-1.81,-12.25,-0.12,-4.28,-19.75
11970,20.31,1.25,-11.69,-0.09,-4.13,-19.53
11980,-0.50,-0.75,-2.06,0.02,-3.65,-19.45
11990,-17.25,-1.94,3.06,-0.18,-3.25,-19.30
12000,-15.88,-1.12,4.06,-0.10,-2.54,-19.29
12010,-2.56,-0.31,1.00,-0.10,-2.85,-19.29
12020,9.81,0.62,-2.37,-0.06,-3.26,-19.49
12030,9.75,0.37,-3.37,-0.11,-3.63,-19.48
12040,1.06,-0.31,-0.69,-0.10,-3.28,-19.44
12050,-7.12,-0.88,1.19,0.00,0.17,-0.10
12060,-7.06,-0.81,1.87,0.02,0.33,-0.03
12070,-0.44,-0.06,0.06,0.00,-0.02,-0.15
12080,5.56,0.13,-1.25,0.02,-0.26,-0.20
12090,3.81,0.00,-1.25,0.01,-0.17,-0.21
12100,-1.31,-0.56,0.00,-0.01,-0.09,-0.15
12110,-4.56,-0.44,0.69,0.00,0.18,-0.07
12120,-2.25,-0.37,0.50,0.01,0.06,-0.09
12130,1.75,-0.06,-0.44,-0.02,-0.05,-0.18
12140,2.87,0.00,-0.75,0.00,-0.13,-0.15
12150,0.31,-0.31,-0.19,0.00,-0.02,-0.12
12160,-2.00,-0.06,0.06,0.02,0.09,-0.08
12170,-1.62,-0.19,0.31,0.00,0.06,-0.12
12180,0.44,-0.13,-0.13,0.04,0.01,-0.14
12190,1.44,0.13,-0.37,0.02,-0.05,-0.11
12200,0.37,-0.19,-0.19,0.02,-0.01,-0.11
12210,-1.06,-0.25,0.00,0.05,0.03,-0.10
12220,-0.88,-0.37,0.00,0.05,0.04,-0.13
12230,0.06,-0.37,-0.19,0.03,-0.01,-0.18
12240,0.69,-0.19,-0.13,0.02,-0.02,-0.14
12250,-0.06,-0.25,-0.06,0.02,0.02,-0.10
12260,-0.44,-0.37,-0.13,0.02,0.02,-0.08
12270,-0.56,-0.44,-0.06,-0.01,0.00,-0.17
12280,0.13,-0.31,-0.31,-0.03,-0.01,-0.14
12290,0.13,-0.37,-0.19,0.00,0.01,-0.14
12300,0.06,-0.25,-0.13,-0.01,0.00,-0.10
12310,-0.13,-0.31,-0.06,0.68,-0.81,-1.43
12320,-9.38,-7.69,0.00,0.73,-1.79,-3.25
12330,-60.56,-38.81,8.00,0.81,-0.12,-1.15
12340,-73.19,-69.87,21.81,0.26,4.11,5.15
12350,-70.94,-73.81,3.31,1.33,-0.39,-2.48
12360,7.00,-57.63,-22.06,1.39,-2.22,-2.64
12370,-17.31,-91.00,-17.56,1.84,0.17,0.18
12380,-2.50,-104.12,-16.12,2.29,1.32,1.78
12390,11.75,-91.50,-32.63,1.16,1.68,2.01
12400,8.44,-53.38,-43.88,-0.97,4.18,-0.04
12410,-31.69,-22.94,-41.06,0.50,5.92,-0.91
12420,-67.50,-12.13,-41.00,-2.99,2.49,0.93
12430,-50.00,-9.31,-74.31,-5.36,-2.56,0.29
12440,-12.75,-10.88,-105.19,-2.32,-4.22,5.49
12450,27.00,32.94,-99.87,-4.38,-5.48,5.26
12460,37.75,132.56,-55.00,0.44,-4.35,4.98
12470,15.88,231.87,-1.56,1.87,-6.00,-5.75
12480,-63.38,238.50,29.31,3.32,4.76,16.97
12490,-64.81,82.50,38.88,0.73,-0.04,-3.96
12500,45.75,81.44,41.38,3.18,3.64,1.53
12510,-11.19,70.69,18.94,0.42,1.78,-0.98
12520,1.69,55.38,-35.56,-3.54,-2.51,-0.82
12530,14.75,66.25,-74.00,-5.44,-6.91,-1.40
12540,30.81,66.62,-44.00,-4.61,-7.55,-5.91
12550,44.13,40.06,21.00,-2.25,-3.77,-7.14
12560,12.06,-11.25,64.19,-0.31,-0.38,-8.03
12570,-8.00,-85.12,78.56,1.16,1.38,-7.80
12580,-26.62,-159.81,70.12,1.15,1.63,-5.32
12590,-42.75,-208.37,63.56,1.70,1.64,-4.24
12600,-66.75,-222.37,59.13,1.26,1.38,-3.11
12610,-82.56,-222.06,51.38,1.81,0.98,-2.63
12620,-106.69,-206.50,45.13,1.42,0.28,-1.56
12630,-129.50,-202.19,28.87,0.40,-0.52,-0.18
12640,-130.19,-208.56,10.88,-0.80,-1.42,1.12
12650,-112.31,-210.19,-1.56,-4.62,-10.97,22.74
12660,-129.19,-149.87,21.50,-3.58,0.18,41.04
12670,-223.50,224.44,113.25,16.96,9.41,8.19
12680,181.12,334.12,50.00,1.12,-0.59,-1.75
12690,-16.81,366.56,2.19,-0.23,-2.26,-4.07
12700,-17.75,312.44,7.31,-0.69,-0.92,-4.91
12710,-13.06,229.25,23.56,0.06,0.48,-3.58
12720,-12.88,175.25,44.63,0.45,0.36,-0.79
12730,-37.63,147.75,56.06,0.92,1.60,0.20
12740,-80.87,111.81,58.19,2.71,4.18,0.73
12750,22.25,72.69,49.00,2.93,3.91,-3.89
12760,65.62,22.56,14.00,0.15,1.13,-2.89
12770,66.62,-14.88,3.87,-2.78,-3.00,-3.96
12780,67.37,-44.25,28.25,-2.34,-2.80,-4.78
12790,43.44,-76.19,65.31,0.81,1.88,-2.56
12800,11.88,-97.31,63.50,3.38,5.29,-0.65
12810,-12.31,-80.31,24.87,0.75,1.42,1.32
12820,-32.63,-32.75,1.75,-0.25,-0.95,-0.61
12830,-41.75,-3.31,6.75,-1.29,-2.99,-0.57
12840,-58.81,-3.69,30.00,-2.45,-5.09,0.00
12850,-75.31,-21.25,66.44,1.42,1.12,0.67
12860,-176.81,-35.63,40.94,-1.79,-0.80,2.40
12870,-87.06,-56.38,33.88,0.56,-0.57,1.10
12880,-2.62,-54.38,38.25,1.34,0.03,-1.03
12890,9.44,-56.81,32.31,0.19,-0.22,-2.04
12900,8.56,-68.56,27.81,-0.39,-0.78,-0.96
12910,0.06,-71.00,38.19,1.05,1.33,1.80
12920,9.13,-46.56,44.81,-0.20,-0.20,3.23
12930,56.19,-16.12,49.00,-0.74,-0.29,2.24
12940,126.44,-9.69,63.56,-0.62,-1.61,-0.67
12950,130.31,-20.12,66.94,-1.62,-0.31,-0.64
12960,40.38,-36.44,49.38,1.13,-0.24,0.49
