timestamp,gyrox,gyroy,gyroz,accx,accy,accz
10,-0.06,-0.13,-0.31,0.00,0.00,0.00
20,-0.13,0.00,0.00,0.00,0.00,0.00
30,-0.06,-0.25,-0.06,0.00,0.00,0.00
40,0.06,-0.06,0.00,-0.36,-0.45,-19.73
50,0.06,-0.37,-0.19,-0.34,-0.45,-19.76
60,0.00,-0.25,-0.06,-0.37,-0.44,-19.71
70,-0.13,-0.31,0.00,-0.36,-0.44,-19.69
80,-0.06,-0.31,-0.06,-0.36,-0.46,-19.72
90,-0.13,-0.19,-0.13,-0.01,-0.01,-0.06
100,-0.06,-0.31,0.00,0.01,-0.02,-0.15
110,0.06,-0.13,-0.13,0.00,-0.01,-0.08
120,-0.25,-0.37,0.00,0.00,0.00,-0.11
130,-0.06,-0.25,0.00,0.00,0.02,-0.10
140,-0.19,-0.31,0.06,-0.01,0.02,-0.12
150,0.06,-0.06,-0.13,0.00,-0.01,-0.13
160,-0.19,-0.25,-0.13,-0.01,0.01,-0.07
170,-0.06,-0.13,-0.06,0.00,-0.01,-0.14
180,-0.25,-0.19,-0.13,-0.01,0.01,-0.13
190,-0.06,-0.13,-0.06,0.01,0.00,-0.12
200,0.00,-0.31,-0.06,0.00,0.01,-0.15
210,-0.19,-0.31,0.06,0.00,-0.01,-0.15
220,0.00,-0.25,-0.06,0.00,0.00,-0.11
230,-0.06,-0.25,-0.06,0.00,0.01,-0.10
240,0.00,-0.19,-0.13,-0.01,-0.02,-0.12
250,-0.19,-0.19,-0.06,0.01,0.00,-0.15
260,-0.06,-0.25,-0.06,0.00,-0.01,-0.13
270,-0.13,-0.13,0.06,0.00,0.00,-0.09
280,0.00,-0.13,-0.06,0.00,-0.02,-0.12
290,-0.19,-0.19,0.00,0.00,-0.01,-0.10
300,-0.06,-0.06,-0.13,0.00,0.00,-0.16
310,-0.13,-0.19,0.00,0.00,0.01,-0.10
320,0.00,-0.25,-0.06,0.00,0.00,-0.10
330,-0.06,-0.13,-0.06,0.00,0.02,-0.07
340,-0.13,-0.31,0.06,0.00,0.01,-0.13
350,-0.06,-0.37,0.00,0.00,0.00,-0.11
360,-0.13,-0.19,0.00,0.00,0.00,-0.14
370,-0.06,0.00,0.06,0.00,0.01,-0.11
380,-0.13,-0.19,0.00,0.00,0.02,-0.11
390,0.06,-0.31,-0.06,0.00,0.00,-0.11
400,-0.13,-0.19,-0.06,0.00,0.03,-0.12
410,-0.06,-0.13,-0.06,0.00,0.01,-0.10
420,-0.06,-0.19,-0.19,-0.03,0.01,-0.08
430,-0.06,-0.19,-0.06,0.00,0.00,-0.12
440,0.00,-0.37,-0.13,0.02,-0.01,-0.13
450,0.00,-0.06,-0.06,0.00,0.00,-0.14
460,0.00,-0.19,-0.06,0.00,0.00,-0.13
470,-0.06,-0.13,0.00,0.00,0.01,-0.13
480,-0.19,-0.31,-0.13,0.02,0.00,-0.14
490,-0.19,-0.19,-0.13,0.00,0.00,-0.15
500,0.00,-0.25,-0.06,0.00,0.00,-0.13
510,0.06,-0.25,-0.19,0.00,-0.01,-0.11
520,0.00,-0.19,0.13,-0.01,0.00,-0.12
530,-0.13,-0.13,0.00,0.00,0.00,-0.12
540,-0.06,-0.19,-0.06,0.00,0.02,-0.11
550,0.00,-0.13,-0.06,0.00,0.01,-0.11
560,-0.13,-0.13,-0.06,-0.01,0.00,-0.11
570,0.00,-0.13,0.06,0.00,0.00,-0.12
580,-0.06,-0.13,-0.13,0.00,0.02,-0.10
590,-0.19,-0.19,-0.06,0.00,0.00,-0.09
600,0.00,-0.25,0.00,0.00,0.03,-0.12
610,-0.13,-0.19,0.00,-0.01,0.01,-0.12
620,-0.06,-0.13,-0.06,-0.01,0.00,-0.10
630,-0.13,-0.19,0.00,0.02,0.00,-0.14
640,0.00,-0.19,0.00,0.02,0.02,-0.09
650,-0.19,-0.37,-0.19,0.00,0.01,-0.11
660,0.06,-0.06,0.00,0.00,-0.03,-0.12
670,-0.31,-0.13,0.00,0.00,0.01,-0.11
680,-0.06,-0.13,-0.13,0.00,0.00,-0.09
690,-0.06,0.13,0.06,0.02,0.00,-0.11
700,0.00,-0.06,-0.06,0.01,0.00,-0.17
710,0.13,-0.06,-0.06,-0.02,0.01,-0.09
720,-0.06,-0.06,-0.13,0.00,0.01,-0.10
730,0.19,0.00,0.00,0.01,0.00,-0.12
740,-0.19,-0.06,0.06,-0.02,0.01,-0.14
750,0.06,0.06,-0.06,-0.01,0.00,-0.13
760,0.00,-0.06,-0.19,0.00,0.01,-0.08
770,-0.13,0.00,0.00,0.02,0.00,-0.14
780,0.00,0.00,0.00,0.00,0.00,-0.11
790,0.13,0.13,0.13,0.02,0.00,-0.10
800,-0.06,0.00,-0.13,0.00,0.00,-0.12
810,0.06,-0.06,0.00,0.01,0.00,-0.13
820,0.06,0.06,0.00,0.01,0.00,-0.09
830,0.00,0.13,0.06,0.00,0.02,-0.12
840,0.06,0.06,-0.13,0.03,0.00,-0.12
850,0.00,0.00,-0.06,0.00,0.00,-0.14
860,0.00,0.13,-0.06,0.00,0.00,-0.11
870,0.06,0.00,0.06,0.01,0.00,-0.09
880,0.06,-0.06,-0.06,0.00,0.01,-0.11
890,0.06,-0.06,0.06,0.00,0.00,-0.09
900,0.00,-0.06,-0.06,0.01,0.00,-0.14
910,0.00,-0.06,0.00,0.00,0.00,-0.15
920,0.00,0.00,0.06,0.01,0.00,-0.11
930,-0.13,-0.13,0.00,0.00,0.00,-0.12
940,0.06,0.00,-0.13,-0.01,0.00,-0.12
950,0.00,0.06,-0.06,0.00,0.00,-0.12
960,0.00,-0.06,0.00,-0.02,0.00,-0.12
970,0.00,0.19,0.06,0.01,0.00,-0.13
980,-0.06,-0.06,0.06,0.00,0.01,-0.09
990,-0.06,-0.13,0.00,0.00,0.00,-0.09
1000,0.00,0.00,0.13,-0.01,0.01,-0.13
1010,-0.06,-0.25,0.06,0.00,0.00,-0.12
1020,0.00,0.00,-0.06,-0.02,0.00,-0.09
1030,-0.13,0.06,-0.13,-0.01,0.01,-0.11
1040,0.00,-0.06,0.06,0.00,-0.02,-0.12
1050,-0.06,-0.06,0.00,0.01,0.00,-0.11
1060,0.13,0.00,-0.13,0.00,-0.02,-0.13
1070,0.00,0.13,-0.06,0.00,-0.02,-0.10
1080,-0.06,-0.13,0.00,0.00,-0.02,-0.11
1090,0.06,0.00,0.06,0.02,0.05,-0.09
1100,-0.06,0.06,-0.06,0.00,-0.02,-0.15
1110,0.06,-0.06,-0.13,0.00,0.00,-0.14
1120,-0.06,0.00,0.00,0.00,0.00,-0.12
1130,0.13,0.06,0.00,0.00,0.00,-0.12
1140,-0.19,-0.06,0.06,0.00,-0.01,-0.13
1150,0.00,-0.06,0.00,0.00,-0.01,-0.16
1160,-0.13,-0.06,-0.06,-0.01,0.01,-0.12
1170,0.19,0.19,-0.13,0.00,0.00,-0.15
1180,0.19,0.19,-0.13,0.01,0.01,-0.13
1190,0.00,0.06,0.06,0.00,-0.02,-0.13
1200,0.00,0.19,0.00,0.00,0.02,-0.10
1210,0.13,0.19,-0.06,0.00,-0.01,-0.13
1220,0.06,-0.06,0.00,0.01,0.00,-0.09
1230,0.00,0.06,0.00,0.00,0.02,-0.10
1240,0.13,0.13,0.06,0.00,0.00,-0.10
1250,-0.06,0.13,0.06,0.01,0.00,-0.16
1260,0.19,-0.06,0.00,0.01,0.00,-0.14
1270,-0.06,-0.13,0.19,0.00,0.00,-0.13
1280,-0.06,-0.13,0.13,0.01,-0.01,-0.10
1290,0.00,0.00,0.00,0.00,0.00,-0.08
1300,0.00,0.13,-0.13,0.00,0.01,-0.12
1310,0.00,0.00,-0.06,0.01,0.00,-0.12
1320,0.00,-0.13,0.13,0.01,-0.01,-0.10
1330,0.06,0.00,0.06,-0.02,0.00,-0.12
1340,-0.19,-0.13,0.06,0.00,0.00,-0.09
1350,-0.06,0.13,-0.13,0.00,-0.02,-0.13
1360,0.00,0.06,0.06,0.00,0.00,-0.10
1370,0.00,-0.06,-0.06,0.01,0.00,-0.14
1380,0.00,-0.06,-0.06,0.01,-0.01,-0.12
1390,-0.13,0.06,-0.06,0.00,0.00,-0.12
1400,-0.13,0.06,-0.06,0.00,0.00,-0.13
1410,0.19,0.19,0.00,0.00,0.00,-0.17
1420,0.00,0.00,0.00,0.00,-0.02,-0.11
1430,-0.13,0.13,0.00,0.00,0.00,-0.10
1440,0.06,-0.06,-0.06,0.00,-0.02,-0.10
1450,-0.06,0.13,-0.06,0.01,0.01,-0.15
1460,0.06,0.06,0.06,0.00,0.00,-0.14
1470,0.06,0.00,0.06,0.00,0.02,-0.07
1480,0.06,0.00,0.06,-0.01,-0.01,-0.17
1490,0.00,0.06,-0.06,0.00,0.02,-0.11
1500,0.00,0.06,-0.06,0.00,0.00,-0.13
1510,-0.13,-0.06,0.00,-0.01,0.00,-0.10
1520,0.06,0.13,0.00,0.00,0.00,-0.12
1530,0.06,0.13,0.00,0.00,-0.02,-0.12
1540,0.00,-0.06,0.13,0.00,0.01,-0.07
1550,0.00,-0.06,0.13,0.01,-0.01,-0.14
1560,-0.06,0.00,0.06,0.00,0.01,-0.11
1570,0.06,-0.13,0.00,0.00,0.00,-0.14
1580,0.06,-0.13,0.00,-0.01,0.02,-0.12
1590,0.06,-0.13,0.06,0.01,-0.01,-0.14
1600,0.06,-0.13,0.06,-0.01,0.00,-0.08
1610,0.00,-0.25,0.00,0.00,0.00,-0.12
1620,0.06,-0.13,0.00,0.00,0.00,-0.11
1630,0.06,-0.13,0.00,-0.01,-0.01,-0.13
1640,-0.06,-0.06,0.06,0.01,0.01,-0.08
1650,0.13,0.13,0.00,0.00,-0.01,-0.10
1660,-0.06,-0.13,0.00,0.00,0.00,-0.12
1670,-0.06,-0.13,0.00,0.00,0.00,-0.10
1680,0.06,0.06,-0.06,0.00,0.00,-0.10
1690,0.06,-0.06,0.00,0.00,0.00,-0.14
1700,0.06,-0.06,0.00,0.02,0.00,-0.13
1710,0.00,-0.13,-0.06,0.00,0.00,-0.12
1720,-0.13,-0.06,-0.06,0.00,0.00,-0.12
1730,-0.06,-0.13,0.06,0.00,0.00,-0.11
1740,0.00,0.06,-0.06,0.01,0.00,-0.13
1750,0.00,0.06,-0.06,0.00,0.00,-0.13
1760,0.13,-0.06,0.06,0.00,0.00,-0.12
1770,0.00,-0.06,0.19,0.01,0.01,-0.10
1780,0.00,-0.13,0.13,-0.01,0.01,-0.11
1790,0.00,0.06,0.13,0.00,0.00,-0.12
1800,0.00,0.06,0.13,0.00,0.00,-0.16
1810,0.00,-0.06,-0.19,-0.01,0.03,-0.10
1820,0.13,0.13,0.06,0.03,-0.02,-0.10
1830,0.00,-0.19,-0.13,0.00,0.01,-0.12
1840,-0.06,0.13,0.00,0.01,0.00,-0.12
1850,-0.06,0.13,0.00,0.01,0.02,-0.11
1860,0.13,0.00,0.00,0.00,-0.01,-0.13
1870,-0.13,0.13,-0.13,0.01,0.03,-0.09
1880,-0.06,0.06,0.19,0.01,0.03,-0.09
1890,0.00,0.06,0.00,0.00,-0.01,-0.11
1900,-0.13,0.06,-0.06,0.00,0.00,-0.12
1910,0.00,0.06,-0.06,0.00,0.02,-0.11
1920,-0.13,-0.06,-0.06,0.00,0.03,-0.10
1930,0.13,0.13,0.13,0.02,-0.01,-0.12
1940,-0.19,0.13,0.00,-0.01,0.03,-0.09
1950,0.06,0.00,0.00,0.00,0.00,-0.16
1960,-0.13,0.06,0.00,0.00,-0.01,-0.10
1970,0.19,0.06,-0.06,0.00,-0.03,-0.10
1980,0.06,-0.13,0.00,0.00,-0.03,-0.10
1990,0.06,0.19,0.00,0.00,-0.02,-0.12
2000,0.00,0.13,-0.13,0.00,0.00,-0.11
2010,0.06,0.06,-0.06,0.01,0.00,-0.14
2020,0.00,0.00,0.06,0.00,0.01,-0.13
2030,0.00,0.00,0.00,0.00,0.01,-0.13
2040,0.00,0.13,0.00,0.00,0.02,-0.12
2050,-0.13,-0.06,0.13,0.00,0.01,-0.14
2060,0.00,0.06,0.00,0.01,0.00,-0.12
2070,0.06,0.00,0.00,0.00,0.00,-0.09
2080,0.06,0.13,0.00,0.00,0.00,-0.09
2090,-0.06,0.06,-0.13,0.00,0.01,-0.11
2100,-0.13,-0.13,-0.13,0.00,0.00,-0.14
2110,0.06,0.13,0.06,0.00,-0.01,-0.10
2120,-0.06,0.19,0.00,0.00,0.00,-0.11
2130,0.00,0.06,0.00,0.00,0.00,-0.11
2140,-0.06,0.06,0.06,0.01,0.02,-0.10
2150,-0.06,-0.13,0.19,0.00,0.00,-0.13
2160,0.00,0.00,0.00,0.00,0.00,-0.12
2170,0.00,0.13,-0.06,0.02,0.00,-0.12
2180,0.00,0.00,-0.06,0.02,0.00,-0.12
2190,0.06,-0.06,-0.06,-0.01,0.01,-0.10
2200,0.00,-0.06,0.06,0.02,0.00,-0.14
2210,-0.06,-0.13,0.06,0.01,0.01,-0.12
2220,0.06,-0.13,0.00,0.01,0.00,-0.12
2230,0.06,-0.13,0.06,0.01,0.00,-0.12
2240,0.00,-0.06,0.00,0.00,0.00,-0.12
2250,-0.06,-0.06,-0.06,-0.01,0.00,-0.13
2260,0.00,0.00,0.00,0.00,0.00,-0.14
2270,-0.13,-0.13,0.19,0.01,0.00,-0.12
2280,-0.13,0.00,-0.06,0.01,0.00,-0.12
2290,0.13,-0.13,-0.06,0.01,0.02,-0.09
2300,0.06,-0.13,0.06,0.01,0.00,-0.15
2310,0.00,-0.13,0.06,0.00,-0.01,-0.13
2320,-0.19,-0.25,-0.06,0.00,0.00,-0.10
2330,0.19,-0.06,0.00,0.00,0.00,-0.10
2340,-0.19,-0.13,-0.06,0.00,0.01,-0.13
2350,0.19,-0.13,-0.06,0.01,-0.01,-0.15
2360,-0.19,-0.13,0.06,0.00,0.01,-0.10
2370,0.06,0.06,-0.06,0.00,0.00,-0.12
2380,0.00,-0.06,0.06,0.00,0.00,-0.12
2390,-0.06,0.00,0.06,0.00,0.00,-0.11
2400,0.00,-0.06,0.06,0.00,0.01,-0.12
2410,-0.06,0.06,0.06,0.01,-0.01,-0.14
2420,0.06,0.00,0.00,0.01,-0.02,-0.14
2430,-0.19,-0.37,-0.06,0.01,-0.02,-0.14
2440,0.19,-0.13,0.13,0.00,-0.03,-0.15
2450,0.00,0.00,0.06,0.00,0.01,-0.14
2460,0.19,0.13,0.00,0.01,-0.01,-0.10
2470,-0.13,-0.13,0.00,0.01,0.01,-0.07
2480,0.06,-0.06,0.00,0.01,0.01,-0.07
2490,0.00,0.06,0.06,0.00,0.01,-0.08
2500,0.00,0.06,-0.06,-0.01,0.00,-0.11
2510,0.00,-0.06,0.13,0.03,0.00,-0.12
2520,-0.13,0.13,0.00,0.00,0.02,-0.11
2530,0.00,0.00,0.06,0.00,0.02,-0.11
2540,-0.06,0.00,0.00,0.00,0.02,-0.11
2550,0.06,-0.06,0.06,0.00,0.00,-0.15
2560,-0.06,-0.06,-0.06,0.00,0.01,-0.13
2570,-0.06,0.06,0.00,0.00,0.00,-0.13
2580,0.06,0.00,0.13,0.00,0.00,-0.13
2590,-0.19,-0.06,-0.06,0.00,-0.01,-0.09
2600,-0.06,0.06,0.06,0.00,-0.02,-0.13
2610,-0.06,0.00,0.13,0.00,-0.02,-0.13
2620,0.00,-0.13,0.00,0.00,0.00,-0.09
2630,-0.06,0.00,-0.06,0.00,0.00,-0.11
2640,0.00,-0.19,0.00,0.02,0.01,-0.10
2650,0.00,0.00,0.00,0.00,-0.01,-0.12
2660,0.06,-0.06,-0.19,0.00,-0.02,-0.10
2670,0.06,0.00,0.00,0.01,0.01,-0.13
2680,0.00,0.00,-0.13,0.00,0.00,-0.12
2690,0.00,0.00,0.06,0.00,0.00,-0.12
2700,0.00,-0.06,-0.06,0.01,-0.02,-0.10
2710,0.06,0.00,-0.06,0.00,0.01,-0.12
2720,-0.13,-0.13,-0.13,0.00,0.00,-0.11
2730,0.00,-0.06,0.06,0.00,0.00,-0.12
2740,0.00,0.00,0.00,0.00,0.00,-0.15
2750,-0.13,0.00,0.00,0.02,0.01,-0.09
2760,-0.06,-0.13,0.00,0.00,-0.02,-0.15
2770,-0.13,-0.13,0.06,0.00,0.00,-0.10
2780,0.00,-0.25,0.00,0.00,0.00,-0.09
2790,0.00,0.00,0.13,0.00,0.00,-0.10
2800,0.06,0.13,0.00,0.00,-0.01,-0.15
2810,-0.06,-0.06,0.19,-0.01,0.02,-0.12
2820,0.00,-0.06,-0.13,0.01,0.01,-0.07
2830,-0.31,-0.06,0.00,-0.01,-0.01,-0.12
2840,0.13,0.00,-0.06,0.00,0.01,-0.11
2850,0.00,-0.13,0.06,0.00,-0.01,-0.12
2860,0.06,0.06,0.00,0.00,0.01,-0.13
2870,-0.06,-0.13,0.19,0.00,-0.01,-0.13
2880,0.06,-0.06,0.00,0.00,0.02,-0.12
2890,-0.06,-0.13,-0.13,0.02,0.00,-0.10
2900,-0.06,-0.06,-0.06,-0.01,0.00,-0.12
2910,0.06,0.06,0.00,0.00,0.00,-0.15
2920,-0.06,-0.13,-0.13,-0.01,0.00,-0.13
2930,0.00,0.06,-0.06,0.00,0.01,-0.12
2940,-0.06,-0.13,-0.06,0.01,0.00,-0.15
2950,0.00,0.00,-0.06,0.00,0.00,-0.10
2960,-0.06,-0.13,0.00,0.01,0.00,-0.12
2970,0.13,0.06,-0.06,0.00,-0.01,-0.14
2980,-0.06,0.06,0.00,-0.01,-0.01,-0.12
2990,-0.06,0.00,-0.13,0.00,0.00,-0.09
3000,-0.06,-0.06,0.00,0.01,-0.02,-0.13
3010,0.00,-0.06,0.06,0.00,0.00,-0.14
3020,0.06,-0.13,-0.06,0.00,0.02,-0.10
3030,-0.06,0.00,0.06,0.00,0.00,-0.09
3040,0.00,0.06,-0.13,0.00,0.00,-0.10
3050,-0.06,-0.06,0.00,-0.01,0.01,-0.15
3060,0.13,0.00,0.00,0.00,0.00,-0.14
3070,0.13,-0.13,0.00,0.00,0.00,-0.12
3080,0.00,0.06,0.06,0.00,0.02,-0.10
3090,0.06,0.00,0.13,0.00,0.01,-0.10
3100,-0.06,-0.19,-0.06,0.01,0.00,-0.12
3110,0.19,-0.06,-0.06,0.00,-0.01,-0.11
3120,-0.13,-0.13,0.06,0.01,-0.01,-0.14
3130,0.00,0.00,0.06,0.01,0.01,-0.11
3140,0.00,-0.06,0.13,0.01,0.01,-0.14
3150,0.00,-0.06,-0.06,0.00,0.03,-0.09
3160,-0.06,0.00,0.06,0.00,-0.01,-0.12
3170,0.00,0.06,-0.06,-0.01,0.00,-0.11
3180,0.06,-0.13,0.06,-0.01,0.00,-0.10
3190,-0.13,0.00,-0.06,-0.01,0.00,-0.10
3200,0.06,0.06,0.06,-0.02,0.01,-0.09
3210,0.00,0.06,-0.06,0.00,-0.03,-0.13
3220,0.06,-0.06,0.13,0.00,0.00,-0.11
3230,-0.13,0.00,0.00,0.00,-0.02,-0.11
3240,0.06,-0.06,0.06,0.00,0.00,-0.09
3250,-0.19,-0.06,0.13,0.01,-0.02,-0.11
3260,0.06,-0.13,-0.06,0.00,-0.01,-0.09
3270,0.00,-0.06,0.13,0.02,-0.02,-0.15
3280,0.06,-0.13,0.00,0.01,0.00,-0.13
3290,0.00,-0.06,-0.06,0.00,0.00,-0.12
3300,-0.06,-0.06,-0.06,0.00,0.00,-0.12
3310,0.00,0.00,-0.06,0.00,-0.01,-0.14
3320,-0.06,0.06,-0.06,0.02,-0.01,-0.11
3330,0.06,0.06,-0.06,0.00,0.02,-0.09
3340,-0.06,-0.06,-0.13,0.02,-0.01,-0.14
3350,-0.13,0.00,-0.06,0.00,0.00,-0.13
3360,-0.13,-0.06,0.00,-0.02,0.00,-0.13
3370,-0.06,-0.13,-0.06,0.00,0.01,-0.10
3380,0.00,-0.13,-0.06,0.01,0.00,-0.11
3390,0.00,0.06,0.06,0.00,-0.02,-0.12
3400,0.06,0.06,0.06,0.00,0.00,-0.13
3410,0.00,0.13,0.06,-0.02,0.00,-0.11
3420,-0.06,-0.06,0.00,0.00,0.00,-0.12
3430,0.00,0.06,0.13,0.00,-0.02,-0.11
3440,0.00,0.13,0.06,0.00,0.00,-0.11
3450,0.00,0.00,0.06,0.00,-0.01,-0.09
3460,-0.13,0.06,0.06,0.02,0.00,-0.14
3470,0.06,-0.06,0.06,0.00,0.00,-0.12
3480,0.00,-0.06,0.13,0.01,-0.01,-0.09
3490,0.00,0.06,-0.06,0.00,0.00,-0.13
3500,-0.13,0.00,0.00,0.00,0.00,-0.09
3510,-0.13,-0.13,-0.13,0.00,0.00,-0.13
3520,0.00,0.00,0.00,0.01,-0.02,-0.13
3530,0.00,0.06,-0.06,0.00,0.01,-0.10
3540,-0.06,-0.13,0.13,0.02,0.00,-0.12
3550,0.00,0.13,-0.06,0.00,0.00,-0.15
3560,0.06,0.00,-0.13,0.00,0.01,-0.17
3570,-0.13,-0.06,-0.06,-0.01,0.00,-0.09
3580,0.13,0.06,-0.06,0.02,0.00,-0.16
3590,0.00,0.13,0.06,0.01,-0.01,-0.10
3600,0.13,0.13,0.00,0.00,-0.01,-0.12
3610,-0.06,0.00,-0.06,0.00,-0.01,-0.12
3620,0.06,0.13,-0.13,0.00,0.00,-0.15
3630,-0.06,0.13,-0.06,0.00,-0.02,-0.12
3640,0.19,0.06,-0.06,0.00,0.02,-0.07
3650,0.00,0.13,-0.06,0.01,-0.02,-0.13
3660,-0.13,0.00,-0.06,-0.01,0.02,-0.11
3670,0.00,0.19,-0.13,0.00,-0.01,-0.12
3680,-0.13,0.13,-0.13,0.00,0.00,-0.11
3690,0.00,0.06,0.00,0.01,-0.01,-0.13
3700,-0.19,0.00,0.00,0.00,0.02,-0.10
3710,0.19,0.00,0.06,0.00,0.00,-0.12
3720,-0.06,-0.13,0.06,0.01,-0.01,-0.12
3730,0.06,0.06,0.00,0.00,0.00,-0.12
3740,-0.13,-0.06,-0.06,-0.02,-0.01,-0.11
3750,-0.06,-0.13,0.19,-0.02,0.00,-0.13
3760,-0.13,-0.06,0.13,0.00,0.00,-0.15
3770,0.13,-0.13,-0.06,0.01,0.00,-0.09
3780,0.06,0.06,0.06,0.00,0.00,-0.10
3790,0.00,-0.13,0.13,0.00,-0.01,-0.11
3800,0.13,0.00,0.00,0.00,0.00,-0.13
3810,0.00,-0.06,0.06,0.02,0.00,-0.12
3820,0.00,0.06,0.19,0.00,0.01,-0.11
3830,-0.13,0.00,0.00,0.00,-0.01,-0.11
3840,0.00,-0.06,0.00,0.00,0.03,-0.13
3850,-0.13,-0.19,0.00,0.00,-0.01,-0.11
3860,0.00,-0.13,0.00,0.00,-0.01,-0.11
3870,-0.06,-0.06,0.00,0.00,-0.01,-0.11
3880,-0.06,0.00,0.06,0.02,0.00,-0.13
3890,0.00,-0.19,-0.06,0.00,0.00,-0.13
3900,-0.19,-0.19,-0.06,0.01,-0.01,-0.12
3910,0.06,0.06,0.00,0.01,0.03,-0.13
3920,0.00,-0.06,0.25,0.00,0.00,-0.15
3930,0.00,-0.06,0.00,0.00,0.00,-0.10
3940,-0.06,-0.13,-0.06,0.00,0.00,-0.09
3950,0.00,-0.25,0.13,0.00,0.01,-0.10
3960,0.13,-0.13,0.00,0.00,0.00,-0.16
3970,0.00,-0.06,0.06,0.00,0.01,-0.10
3980,-0.13,-0.06,-0.06,0.01,0.00,-0.11
3990,-0.19,0.00,0.13,0.00,0.00,-0.11
4000,0.06,0.06,-0.06,0.00,0.02,-0.11
4010,-0.06,0.06,-0.06,-0.01,0.00,-0.13
4020,0.00,0.00,0.00,0.00,0.01,-0.11
4030,0.06,-0.19,0.00,0.00,0.00,-0.12
4040,0.13,-0.06,-0.06,0.00,0.01,-0.09
4050,0.13,-0.19,-0.06,0.00,0.02,-0.13
4060,0.00,0.13,0.06,0.00,0.00,-0.11
4070,0.00,-0.13,-0.13,0.00,0.00,-0.15
4080,-0.13,-0.13,0.13,-0.01,-0.01,-0.10
4090,0.00,0.00,0.00,0.00,0.00,-0.10
4100,-0.13,0.06,0.06,0.01,-0.01,-0.11
4110,0.06,0.00,0.06,0.03,0.00,-0.15
4120,0.00,-0.25,0.00,0.00,0.00,-0.10
4130,0.00,0.00,0.00,0.01,0.01,-0.11
4140,0.06,0.00,0.06,0.01,-0.02,-0.13
4150,0.13,-0.06,0.06,0.01,0.02,-0.10
4160,-0.06,0.00,0.00,-0.01,-0.02,-0.15
4170,0.00,-0.13,-0.06,0.00,0.00,-0.09
4180,0.00,-0.06,0.13,0.00,0.00,-0.12
4190,-0.06,-0.06,-0.06,0.00,0.01,-0.09
4200,0.06,-0.06,0.00,0.00,-0.01,-0.14
4210,-0.19,0.06,0.00,0.00,-0.01,-0.14
4220,0.00,0.00,-0.13,0.00,0.00,-0.10
4230,-0.06,0.13,-0.06,-0.01,-0.01,-0.13
4240,0.00,0.13,-0.06,0.00,0.00,-0.15
4250,-0.06,0.00,-0.13,0.00,0.00,-0.11
4260,0.00,0.00,0.00,0.01,0.00,-0.13
4270,0.00,-0.06,0.00,0.01,0.00,-0.10
4280,0.00,0.00,0.06,0.00,-0.01,-0.12
4290,-0.06,0.00,0.00,0.00,0.01,-0.08
4300,0.00,0.00,-0.06,0.00,-0.01,-0.14
4310,-0.06,0.25,-0.06,0.00,0.00,-0.12
4320,-0.13,0.00,0.06,0.01,0.00,-0.11
4330,0.00,-0.06,0.06,-0.01,0.00,-0.13
4340,0.06,0.00,0.13,0.00,0.00,-0.13
4350,-0.13,-0.06,0.00,0.01,0.00,-0.10
4360,0.06,0.06,-0.06,0.00,0.02,-0.13
4370,-0.13,0.00,0.06,0.00,-0.03,-0.12
4380,0.13,0.06,0.06,0.00,0.00,-0.12
4390,-0.13,-0.06,-0.06,0.01,0.00,-0.10
4400,0.06,-0.13,0.00,0.00,0.02,-0.07
4410,-0.06,0.13,0.13,0.00,-0.03,-0.16
4420,0.00,-0.13,-0.06,0.00,0.00,-0.11
4430,-0.06,0.00,0.06,0.00,0.00,-0.11
4440,-0.06,0.13,-0.06,-0.02,0.00,-0.09
4450,0.00,0.00,-0.13,0.00,0.00,-0.14
4460,-0.06,0.06,-0.13,-0.01,0.01,-0.11
4470,0.13,-0.06,0.00,0.01,-0.01,-0.16
4480,-0.13,0.00,0.00,0.02,-0.01,-0.14
4490,0.13,-0.06,0.13,0.00,0.02,-0.08
4500,-0.13,-0.06,0.06,-0.01,0.00,-0.12
4510,0.06,-0.13,0.06,0.00,-0.01,-0.16
4520,-0.06,-0.13,0.00,0.01,-0.01,-0.14
4530,0.06,0.00,0.06,0.00,0.01,-0.10
4540,0.00,0.06,0.06,0.00,-0.03,-0.15
4550,0.06,-0.19,0.00,0.00,0.03,-0.08
4560,-0.06,0.06,0.00,0.00,-0.02,-0.13
4570,-0.06,-0.13,-0.06,0.00,0.00,-0.10
4580,0.06,-0.25,0.13,0.00,0.00,-0.09
4590,-0.06,0.00,0.06,0.02,0.00,-0.14
4600,0.00,0.00,0.00,0.00,0.00,-0.10
4610,0.00,0.00,0.00,0.00,0.01,-0.15
4620,0.13,0.00,0.06,0.00,-0.02,-0.15
4630,-0.13,-0.06,0.00,0.00,0.00,-0.10
4640,-0.06,0.06,-0.13,0.00,0.00,-0.10
4650,-0.19,0.00,0.06,0.00,-0.01,-0.10
4660,-0.06,0.06,-0.13,-0.01,0.01,-0.12
4670,0.00,0.06,0.00,0.00,0.00,-0.12
4680,-0.13,0.19,-0.06,0.00,0.00,-0.08
4690,-0.06,0.00,0.00,-0.01,0.00,-0.10
4700,-0.06,-0.06,-0.06,-0.01,-0.01,-0.09
4710,0.06,-0.06,0.13,0.01,0.01,-0.12
4720,0.00,-0.06,-0.06,0.00,0.00,-0.14
4730,-0.13,-0.19,0.06,0.01,0.00,-0.12
4740,-0.06,0.00,0.06,-0.01,-0.01,-0.12
4750,-0.13,-0.13,0.13,0.00,-0.02,-0.11
4760,-0.06,0.00,0.13,0.00,0.00,-0.13
4770,-0.19,-0.06,0.13,0.00,0.00,-0.13
4780,0.00,-0.06,-0.06,0.00,0.00,-0.12
4790,0.00,0.13,-0.13,0.00,0.00,-0.15
4800,0.00,0.06,-0.06,0.01,0.01,-0.10
4810,-0.06,0.06,-0.06,0.01,0.00,-0.16
4820,0.00,0.06,0.00,0.00,0.00,-0.12
4830,0.13,0.06,0.06,0.00,0.01,-0.15
4840,-0.06,0.00,0.06,0.00,-0.01,-0.10
4850,0.00,0.06,-0.06,0.00,0.00,-0.13
4860,-0.06,-0.06,0.00,0.01,-0.02,-0.16
4870,0.13,-0.06,-0.06,0.02,0.00,-0.11
4880,-0.13,0.06,0.06,0.00,0.00,-0.11
4890,0.00,0.00,0.00,0.00,0.01,-0.14
4900,-0.13,0.13,-0.06,0.00,0.00,-0.13
4910,0.00,0.13,-0.06,-0.01,0.02,-0.12
4920,0.00,0.00,-0.13,0.00,-0.01,-0.11
4930,0.00,0.00,0.06,0.01,0.02,-0.07
4940,0.00,-0.06,0.06,0.01,0.00,-0.13
4950,-0.06,-0.25,0.19,0.00,0.01,-0.11
4960,0.06,0.00,0.06,0.00,0.00,-0.16
4970,-0.25,0.19,0.06,0.00,0.03,-0.07
4980,0.19,0.13,-0.06,0.00,0.00,-0.09
4990,-0.19,0.00,-0.06,0.00,0.00,-0.11
5000,0.00,0.19,0.00,0.01,0.03,-0.15
5010,-0.06,0.06,0.00,0.00,0.01,-0.10
5020,0.00,0.00,0.00,-0.01,0.00,-0.09
5030,-0.13,0.00,0.13,0.00,-0.03,-0.11
5040,0.00,0.06,0.19,0.00,0.01,-0.12
5050,0.00,-0.06,0.13,0.00,0.00,-0.11
5060,-0.13,-0.13,0.00,0.00,0.00,-0.11
5070,-0.06,0.00,0.13,0.00,0.00,-0.13
5080,0.00,0.00,0.13,0.00,0.00,-0.12
5090,0.13,-0.31,0.06,0.00,-0.02,-0.15
5100,-0.06,0.00,0.00,0.00,0.00,-0.13
5110,0.00,0.13,0.00,0.00,0.00,-0.12
5120,-0.13,-0.13,0.06,0.01,-0.01,-0.12
5130,0.00,0.06,0.13,0.00,0.00,-0.09
5140,-0.06,0.00,0.00,0.00,-0.01,-0.08
5150,-0.06,0.00,0.06,0.00,0.02,-0.13
5160,0.13,-0.13,0.13,-0.02,0.00,-0.13
5170,0.00,0.00,0.06,0.00,-0.02,-0.11
5180,0.13,0.13,0.06,0.00,0.01,-0.12
5190,0.06,-0.06,0.00,0.00,-0.03,-0.13
5200,-0.06,-0.13,-0.13,0.00,-0.01,-0.10
5210,0.06,0.06,-0.06,0.01,0.00,-0.11
5220,-0.06,-0.06,0.00,0.01,-0.01,-0.11
5230,0.13,0.06,0.00,0.00,0.00,-0.13
5240,-0.06,0.06,-0.13,0.00,-0.01,-0.13
5250,0.13,-0.19,-0.06,0.00,0.00,-0.13
5260,0.00,0.06,-0.13,0.01,0.01,-0.15
5270,0.06,0.06,0.00,0.01,0.00,-0.12
5280,0.13,0.00,-0.19,0.00,0.01,-0.12
5290,0.06,0.06,0.13,0.00,0.02,-0.09
5300,-0.13,0.00,-0.06,0.00,0.00,-0.14
5310,0.06,0.06,0.06,-0.02,0.01,-0.12
5320,0.00,0.00,0.06,0.00,-0.04,-0.12
5330,-0.06,0.00,-0.06,0.01,0.02,-0.09
5340,-0.06,-0.06,0.19,0.01,0.00,-0.14
5350,-0.13,0.06,-0.06,0.02,0.00,-0.08
5360,0.13,-0.06,-0.13,0.01,0.00,-0.16
5370,-0.13,0.13,-0.19,0.01,-0.01,-0.13
5380,0.19,-0.06,-0.06,-0.01,0.00,-0.10
5390,-0.06,0.13,-0.13,0.00,-0.01,-0.15
5400,0.06,-0.13,-0.19,0.00,-0.02,-0.15
5410,-0.13,-0.19,-0.06,0.01,0.00,-0.16
5420,0.00,0.06,-0.06,-0.01,0.02,-0.10
5430,0.00,-0.13,-0.06,0.01,0.00,-0.14
5440,-0.13,0.06,-0.06,0.00,-0.02,-0.10
5450,0.06,0.06,-0.06,0.00,-0.01,-0.13
5460,0.00,0.25,0.00,0.00,0.00,-0.10
5470,0.00,-0.06,-0.06,0.00,-0.01,-0.12
5480,-0.06,-0.19,-0.13,0.00,0.00,-0.11
5490,0.06,-0.06,-0.13,0.00,0.01,-0.12
5500,-0.13,0.00,0.06,-0.01,-0.01,-0.09
5510,0.13,0.00,0.00,0.00,0.01,-0.15
5520,0.00,-0.19,0.00,0.00,-0.02,-0.12
5530,0.06,0.00,-0.06,-0.01,0.03,-0.09
5540,-0.06,0.06,-0.13,0.00,-0.02,-0.12
5550,0.06,0.00,0.00,0.01,0.01,-0.10
5560,-0.06,0.00,0.00,0.01,0.00,-0.17
5570,0.00,0.06,-0.13,0.00,-0.01,-0.10
5580,0.00,0.19,-0.06,0.00,0.00,-0.14
5590,0.00,0.06,0.06,0.00,-0.02,-0.09
5600,0.06,0.00,-0.06,0.00,0.00,-0.09
5610,0.00,-0.06,-0.06,-0.01,0.00,-0.13
5620,0.00,-0.19,-0.06,0.02,0.02,-0.12
5630,0.13,0.19,0.00,0.00,-0.01,-0.13
5640,-0.19,0.06,0.06,0.00,0.00,-0.09
5650,0.06,-0.06,0.00,0.00,0.00,-0.12
5660,0.06,0.00,-0.13,-0.02,0.00,-0.14
5670,0.06,0.19,0.00,0.01,-0.01,-0.11
5680,0.00,0.00,0.00,0.00,-0.02,-0.14
5690,0.00,0.13,0.00,0.00,0.01,-0.09
5700,-0.06,0.00,0.06,0.00,0.00,-0.10
5710,0.06,-0.19,-0.06,0.00,0.01,-0.12
5720,0.00,-0.13,0.00,0.00,-0.03,-0.14
5730,-0.06,-0.13,-0.06,0.00,0.01,-0.09
5740,0.00,0.19,0.00,0.01,-0.01,-0.11
5750,-0.06,-0.13,0.00,0.00,0.00,-0.12
5760,0.13,-0.13,0.06,-0.01,0.02,-0.11
5770,-0.13,0.19,0.00,0.01,0.02,-0.11
5780,0.06,0.13,0.00,0.01,0.00,-0.11
5790,-0.13,0.13,0.06,0.00,-0.02,-0.10
5800,0.13,0.06,0.13,-0.01,0.01,-0.08
5810,-0.06,0.06,-0.06,0.01,-0.01,-0.12
5820,0.13,0.06,0.00,0.01,0.01,-0.12
5830,-0.06,-0.06,0.06,0.00,0.00,-0.14
5840,-0.06,-0.06,0.00,0.00,0.02,-0.07
5850,0.13,0.13,0.13,0.00,-0.02,-0.12
5860,-0.06,-0.06,0.06,0.00,0.00,-0.11
5870,0.06,0.00,0.00,0.00,0.01,-0.10
5880,-0.06,-0.06,0.13,-0.01,-0.03,-0.12
5890,0.13,0.19,-0.25,0.00,-0.02,-0.12
5900,-0.06,0.19,0.00,0.01,0.00,-0.12
5910,0.06,0.13,0.06,0.00,0.02,-0.11
5920,-0.06,-0.13,0.00,0.02,0.00,-0.15
5930,0.06,0.00,-0.06,0.00,-0.01,-0.09
5940,-0.13,0.00,-0.06,0.01,0.00,-0.12
5950,0.00,0.00,-0.13,0.00,0.02,-0.10
5960,0.00,0.13,-0.06,0.01,0.00,-0.13
5970,0.00,0.00,0.06,0.00,0.00,-0.11
5980,-0.13,-0.19,-0.13,0.00,0.00,-0.13
5990,0.06,0.06,0.00,0.00,0.00,-0.10
6000,-0.13,-0.13,-0.06,-0.01,0.00,-0.11
6010,-0.13,-0.13,0.13,0.00,0.00,-0.13
6020,0.06,0.00,0.06,-0.01,0.01,-0.12
6030,-0.06,0.13,0.00,0.00,0.00,-0.10
6040,-0.06,0.13,-0.06,0.00,0.00,-0.09
6050,0.13,0.13,0.06,0.01,0.01,-0.11
6060,-0.06,0.13,0.06,0.00,-0.01,-0.13
6070,0.19,-0.13,0.06,0.01,0.01,-0.09
6080,0.00,0.00,0.00,-0.02,-0.01,-0.11
6090,0.13,0.06,0.06,0.01,0.00,-0.11
6100,-0.06,0.00,-0.06,0.00,0.00,-0.12
6110,0.06,-0.25,0.06,0.00,0.02,-0.09
6120,-0.06,0.00,0.13,0.00,0.00,-0.14
6130,-0.13,0.13,0.13,0.00,0.01,-0.11
6140,0.06,0.00,0.13,0.00,0.01,-0.13
6150,-0.19,0.00,-0.06,0.00,-0.01,-0.07
6160,0.06,0.00,-0.06,0.00,-0.01,-0.14
6170,-0.19,-0.13,0.00,0.00,0.04,-0.10
6180,0.06,-0.06,-0.13,0.00,0.01,-0.07
6190,0.06,-0.06,-0.13,0.00,-0.01,-0.12
6200,0.06,0.06,0.13,0.00,0.00,-0.12
6210,-0.06,-0.06,0.00,0.00,-0.01,-0.13
6220,0.06,0.06,0.13,-0.02,0.00,-0.11
6230,0.06,-0.06,0.06,0.00,-0.03,-0.15
6240,-0.25,0.00,0.13,0.00,0.02,-0.08
6250,0.06,0.00,0.19,0.00,0.03,-0.12
6260,-0.19,0.00,0.06,0.00,-0.02,-0.14
6270,0.13,0.19,-0.06,-0.01,0.00,-0.11
6280,-0.13,-0.06,-0.06,0.00,0.00,-0.08
6290,-0.13,-0.06,-0.06,0.00,0.01,-0.07
6300,0.13,0.00,0.06,0.01,0.00,-0.12
6310,-0.06,0.06,0.13,-0.01,0.01,-0.13
6320,0.00,-0.13,0.00,-0.01,-0.01,-0.12
6330,0.06,-0.06,0.06,0.00,0.00,-0.13
6340,0.06,-0.06,0.06,0.01,0.01,-0.12
6350,-0.06,-0.06,0.13,0.00,0.00,-0.09
6360,0.00,-0.06,0.00,0.00,-0.01,-0.15
6370,-0.06,0.00,0.13,0.00,-0.02,-0.12
6380,0.19,0.13,-0.06,0.00,0.00,-0.13
6390,0.19,0.13,-0.06,0.01,0.01,-0.10
6400,0.06,0.06,0.00,0.00,-0.01,-0.11
6410,0.06,0.06,0.00,0.00,-0.01,-0.11
6420,0.06,0.00,0.00,0.00,0.02,-0.10
6430,0.06,0.00,0.00,0.00,-0.02,-0.11
6440,0.06,0.00,0.00,0.00,0.00,-0.11
6450,-0.13,-0.13,0.06,0.00,0.01,-0.11
6460,-0.06,0.00,0.00,0.01,-0.01,-0.14
6470,-0.06,-0.06,0.19,0.01,0.00,-0.11
6480,0.06,-0.06,0.06,0.00,0.01,-0.11
6490,0.00,0.06,0.00,0.00,0.01,-0.11
6500,0.00,0.06,0.00,0.00,0.00,-0.14
6510,-0.13,-0.13,-0.06,0.02,0.03,-0.14
6520,0.06,0.00,0.00,0.00,-0.01,-0.11
6530,0.00,0.00,0.00,0.00,0.00,-0.13
6540,0.00,0.00,0.00,0.00,0.00,-0.12
6550,0.19,-0.06,-0.13,-0.01,0.00,-0.11
6560,-0.13,0.06,0.06,0.00,0.00,-0.11
6570,0.13,0.19,-0.19,0.01,0.00,-0.12
6580,-0.06,-0.06,-0.06,0.00,0.01,-0.10
6590,0.00,0.00,0.00,0.00,0.01,-0.10
6600,0.06,0.06,-0.19,-0.02,0.00,-0.12
6610,0.00,0.00,-0.06,0.00,0.00,-0.13
6620,0.06,0.06,-0.06,-0.01,0.00,-0.11
6630,-0.13,-0.13,0.06,0.02,0.00,-0.12
6640,0.06,0.00,0.06,0.00,-0.01,-0.11
6650,-0.13,0.13,-0.13,0.00,0.02,-0.12
6660,0.06,0.06,-0.06,0.00,0.00,-0.13
6670,-0.13,0.06,0.00,-0.01,-0.03,-0.17
6680,0.06,-0.13,0.06,0.00,0.00,-0.14
6690,-0.13,-0.06,0.06,0.00,0.00,-0.14
6700,0.13,0.00,0.00,0.00,-0.02,-0.12
6710,-0.06,0.00,-0.06,0.01,0.00,-0.13
6720,0.06,-0.06,-0.06,0.00,0.00,-0.12
6730,0.00,0.00,-0.06,0.00,0.03,-0.10
6740,0.00,0.13,0.00,0.00,0.03,-0.10
6750,0.13,0.06,-0.06,0.01,0.00,-0.09
6760,-0.06,0.06,0.13,0.00,0.00,-0.11
6770,0.13,0.13,-0.06,0.00,0.00,-0.10
6780,-0.13,-0.13,0.00,0.00,-0.02,-0.15
6790,0.06,-0.13,-0.13,0.00,-0.02,-0.15
6800,-0.25,-0.13,0.06,0.00,0.00,-0.10
6810,0.06,-0.13,-0.06,0.00,-0.01,-0.12
6820,0.06,-0.06,0.06,0.00,0.00,-0.12
6830,-0.06,0.13,0.00,0.00,0.00,-0.12
6840,0.06,-0.06,-0.06,0.00,0.00,-0.12
6850,0.00,-0.06,0.00,0.00,0.00,-0.12
6860,0.00,-0.13,-0.13,0.00,0.01,-0.12
6870,-0.13,0.06,0.06,0.00,0.00,-0.13
6880,0.19,0.00,0.06,-0.01,-0.03,-0.10
6890,-0.06,-0.06,0.00,-0.01,-0.03,-0.10
6900,0.06,-0.06,-0.06,0.00,0.00,-0.13
6910,0.00,0.00,0.06,0.00,0.00,-0.15
6920,0.00,-0.13,-0.13,0.01,-0.01,-0.11
6930,-0.13,-0.13,0.06,0.00,0.00,-0.09
6940,0.00,0.00,0.13,0.00,0.00,-0.09
6950,0.06,-0.13,0.00,0.00,0.01,-0.12
6960,0.06,0.06,-0.06,0.01,0.02,-0.12
6970,0.06,0.19,0.00,0.01,0.00,-0.14
6980,0.00,0.06,0.06,0.01,0.00,-0.13
6990,0.00,0.00,0.13,0.01,0.00,-0.13
7000,0.06,-0.13,-0.06,0.00,0.02,-0.13
7010,0.00,-0.06,-0.13,0.00,-0.01,-0.15
7020,0.00,-0.06,0.13,-0.01,0.00,-0.13
7030,-0.13,-0.19,0.00,0.00,0.01,-0.10
7040,0.13,-0.06,-0.06,0.00,0.01,-0.10
7050,0.00,-0.13,-0.13,0.00,0.00,-0.14
7060,0.06,0.06,0.00,0.00,-0.02,-0.13
7070,-0.06,-0.06,-0.13,0.00,0.01,-0.08
7080,0.00,0.06,0.00,0.00,0.00,-0.10
7090,-0.06,0.19,0.00,0.00,0.00,-0.10
7100,0.00,0.06,-0.06,-0.01,-0.01,-0.12
7110,0.06,0.06,-0.06,0.00,0.02,-0.11
7120,0.00,0.00,0.13,0.01,-0.01,-0.15
7130,-0.06,0.06,-0.06,0.00,0.00,-0.10
7140,-0.06,-0.13,0.06,0.00,0.00,-0.10
7150,0.00,0.13,0.00,0.00,0.00,-0.10
7160,-0.06,0.00,-0.13,0.00,0.01,-0.14
7170,0.06,0.19,0.06,-0.01,0.01,-0.13
7180,0.06,0.06,-0.06,0.00,0.01,-0.11
7190,0.13,0.06,0.00,0.00,0.01,-0.11
7200,-0.13,0.00,-0.13,0.01,0.00,-0.16
7210,-0.06,-0.06,0.00,0.00,0.00,-0.16
7220,0.06,0.00,-0.06,0.00,0.00,-0.11
7230,0.13,0.25,-0.06,0.00,-0.01,-0.14
7240,0.00,0.06,-0.06,0.00,-0.01,-0.14
7250,0.13,0.00,-0.13,0.01,0.01,-0.11
7260,0.00,0.06,0.06,0.01,0.00,-0.14
7270,0.06,0.00,-0.06,0.01,0.00,-0.12
7280,-0.06,-0.13,0.00,0.00,0.00,-0.10
7290,-0.06,0.13,-0.13,0.00,0.00,-0.10
7300,-0.13,0.00,0.06,0.00,0.01,-0.12
7310,0.06,0.06,0.06,-0.01,0.01,-0.12
7320,0.06,-0.06,-0.06,0.01,0.00,-0.14
7330,-0.06,0.00,0.00,0.00,0.00,-0.11
7340,0.00,-0.06,0.00,0.00,0.00,-0.11
7350,0.06,-0.06,0.06,0.00,0.00,-0.10
7360,0.06,-0.19,0.06,0.00,0.00,-0.13
7370,0.00,-0.06,0.13,0.00,0.00,-0.14
7380,0.00,0.06,0.13,0.00,0.00,-0.14
7390,-0.13,-0.25,0.13,0.00,0.04,-0.08
7400,-0.06,0.13,-0.06,0.01,0.00,-0.11
7410,-0.06,0.13,0.06,0.00,-0.01,-0.12
7420,0.00,0.19,0.00,0.00,-0.01,-0.12
7430,-0.13,-0.06,0.06,0.01,0.00,-0.08
7440,0.06,0.06,0.00,0.00,-0.01,-0.14
7450,-0.13,0.13,-0.19,0.00,0.00,-0.07
7460,0.13,0.06,0.00,0.01,0.00,-0.11
7470,-0.19,-0.13,0.06,0.01,0.00,-0.15
7480,0.13,0.00,-0.13,0.01,0.00,-0.11
7490,-0.06,-0.06,0.06,0.01,0.01,-0.09
7500,0.06,-0.06,0.00,-0.02,0.02,-0.09
7510,0.06,0.00,-0.06,0.00,0.00,-0.14
7520,0.00,-0.06,-0.13,0.00,0.00,-0.11
7530,-0.13,-0.06,0.06,0.01,0.00,-0.14
7540,-0.06,0.00,-0.06,0.00,0.00,-0.12
7550,0.00,0.13,0.06,-0.01,-0.01,-0.09
7560,-0.06,0.06,0.06,0.00,0.00,-0.10
7570,0.13,0.00,-0.13,0.00,0.01,-0.15
7580,-0.06,-0.06,-0.06,0.00,-0.01,-0.13
7590,-0.13,0.00,0.00,0.00,0.01,-0.09
7600,-0.06,0.00,-0.06,0.00,0.00,-0.10
7610,0.00,0.06,0.00,0.00,0.00,-0.13
7620,0.06,0.06,0.00,0.00,0.00,-0.14
7630,-0.06,0.13,0.00,-0.02,0.00,-0.10
7640,0.00,0.13,-0.13,0.00,-0.02,-0.14
7650,-0.06,-0.13,0.13,0.00,-0.01,-0.13
7660,0.00,0.00,0.00,0.01,0.00,-0.10
7670,-0.13,-0.06,0.00,0.00,0.00,-0.14
7680,0.06,0.00,0.00,0.00,0.04,-0.10
7690,0.00,-0.19,0.19,0.01,-0.01,-0.13
7700,0.00,0.00,0.00,0.00,0.01,-0.11
7710,0.06,0.00,0.00,0.01,-0.03,-0.17
7720,0.00,0.00,0.06,0.01,0.02,-0.09
7730,0.13,0.06,-0.06,0.00,0.00,-0.11
7740,-0.19,0.00,-0.06,0.00,0.02,-0.11
7750,-0.06,-0.13,0.13,0.02,0.02,-0.10
7760,-0.06,0.00,0.06,0.01,0.01,-0.10
7770,0.00,0.00,-0.06,-0.01,0.02,-0.13
7780,-0.06,0.00,0.06,-0.01,0.00,-0.14
7790,0.06,-0.13,0.00,-0.01,0.00,-0.14
7800,0.00,-0.06,0.06,-0.01,-0.01,-0.10
7810,0.00,-0.06,0.00,0.00,0.01,-0.12
7820,-0.19,-0.06,0.06,0.02,0.03,-0.14
7830,0.06,0.06,-0.13,0.00,0.00,-0.11
7840,0.00,0.13,0.00,0.01,-0.01,-0.15
7850,0.06,0.06,0.06,0.00,0.00,-0.12
7860,0.00,-0.13,0.06,0.00,0.00,-0.10
7870,0.00,-0.13,0.00,0.00,0.00,-0.11
7880,-0.13,0.00,0.00,-0.02,0.00,-0.12
7890,0.00,0.00,0.00,0.00,0.00,-0.12
7900,-0.19,0.13,0.13,0.00,0.00,-0.11
7910,-0.06,-0.06,0.13,-0.02,0.00,-0.09
7920,0.06,0.06,0.25,0.00,0.00,-0.12
7930,0.06,0.00,-0.06,-0.01,-0.02,-0.13
7940,0.00,0.13,-0.13,-0.01,-0.01,-0.11
7950,0.06,0.06,-0.06,0.00,-0.02,-0.14
7960,-0.19,0.19,-0.06,0.00,0.00,-0.15
7970,0.00,0.00,0.06,-0.01,0.01,-0.14
7980,-0.06,0.00,0.13,0.00,-0.02,-0.14
7990,0.00,0.06,0.06,0.01,-0.01,-0.11
8000,0.13,0.13,-0.06,0.01,-0.01,-0.14
8010,-0.06,0.00,-0.06,-0.02,0.02,-0.11
8020,0.06,0.13,-0.06,0.00,0.00,-0.16
8030,-0.06,-0.06,0.00,-0.01,0.03,-0.12
8040,0.13,0.06,-0.13,0.00,0.00,-0.11
8050,0.00,0.06,0.06,0.00,-0.01,-0.11
8060,0.06,0.13,0.00,-0.01,0.00,-0.11
8070,-0.19,-0.06,0.06,0.01,-0.01,-0.11
8080,0.13,0.06,-0.13,0.00,0.02,-0.12
8090,0.06,0.13,-0.13,0.00,0.00,-0.12
8100,-0.19,-0.06,-0.06,0.00,0.02,-0.10
8110,-0.06,0.06,0.06,0.00,-0.01,-0.10
8120,0.06,0.13,0.06,0.00,0.00,-0.13
8130,0.25,0.13,-0.19,0.00,0.00,-0.11
8140,-0.06,0.06,0.13,0.01,0.00,-0.10
8150,0.13,0.13,0.00,0.01,0.01,-0.11
8160,-0.13,0.00,0.13,0.00,-0.02,-0.13
8170,0.13,0.06,0.06,0.00,0.01,-0.13
8180,0.06,0.00,-0.06,0.00,0.00,-0.12
8190,-0.06,0.06,0.00,0.01,0.00,-0.09
8200,0.06,-0.06,0.00,0.01,-0.01,-0.15
8210,-0.06,-0.06,0.13,0.01,0.00,-0.07
8220,0.13,0.00,0.00,0.00,-0.03,-0.13
8230,-0.06,-0.06,0.00,-0.01,0.00,-0.14
8240,0.25,0.00,-0.06,0.00,-0.01,-0.12
8250,-0.19,-0.13,-0.06,0.00,0.00,-0.12
8260,0.13,0.00,-0.06,0.00,0.00,-0.11
8270,0.06,-0.06,0.06,0.00,-0.02,-0.16
8280,0.06,-0.06,0.13,-0.01,0.00,-0.10
8290,0.13,0.00,0.00,0.01,0.00,-0.12
8300,-0.13,-0.06,-0.06,0.00,0.00,-0.11
8310,-0.06,-0.06,0.06,0.00,0.00,-0.12
8320,-0.06,-0.19,-0.06,0.00,0.00,-0.12
8330,0.00,-0.06,0.00,0.01,-0.01,-0.11
8340,0.00,-0.13,0.00,0.00,0.00,-0.11
8350,0.13,-0.13,0.06,0.00,0.00,-0.07
8360,0.06,-0.19,0.06,0.00,-0.03,-0.09
8370,0.00,-0.06,0.00,0.01,0.00,-0.12
8380,0.00,-0.06,0.13,0.00,0.00,-0.12
8390,0.00,-0.19,-0.13,0.00,0.00,-0.11
8400,-0.06,-0.13,0.06,-0.01,-0.01,-0.13
8410,-0.06,0.00,0.00,0.00,0.00,-0.13
8420,-0.06,-0.13,0.13,0.00,0.01,-0.14
8430,0.06,0.06,0.00,0.01,0.00,-0.13
8440,0.00,0.13,-0.06,-0.01,0.00,-0.09
8450,-0.06,-0.06,-0.06,0.00,0.00,-0.13
8460,-0.06,-0.13,-0.06,0.00,-0.01,-0.11
8470,-0.06,0.00,0.00,0.00,-0.01,-0.14
8480,-0.13,-0.13,-0.06,0.01,0.01,-0.10
8490,-0.06,-0.19,0.06,0.00,-0.01,-0.12
8500,0.00,0.00,0.06,0.00,0.00,-0.08
8510,0.06,0.06,0.00,0.00,0.00,-0.12
8520,0.00,0.00,-0.13,0.00,0.02,-0.14
8530,0.13,-0.13,0.06,0.00,0.00,-0.15
8540,-0.13,0.00,0.06,0.01,-0.01,-0.12
8550,0.06,0.00,0.06,0.00,0.00,-0.10
8560,-0.19,0.00,0.06,0.00,0.00,-0.13
8570,-0.13,0.00,-0.13,0.00,0.01,-0.15
8580,0.06,-0.19,0.06,0.00,0.00,-0.14
8590,0.00,-0.06,0.00,0.00,0.01,-0.07
8600,0.06,-0.06,0.06,0.00,-0.02,-0.09
8610,0.00,0.06,0.00,0.00,0.00,-0.11
8620,0.06,0.06,-0.06,0.00,0.00,-0.16
8630,-0.13,0.00,-0.06,0.00,0.00,-0.09
8640,-0.06,0.00,0.13,0.00,-0.02,-0.14
8650,-0.13,-0.19,-0.06,0.01,0.01,-0.11
8660,-0.06,0.06,0.06,0.00,0.01,-0.13
8670,0.00,-0.06,0.13,-0.01,0.00,-0.13
8680,-0.06,-0.13,0.00,0.00,0.00,-0.11
8690,-0.06,0.00,0.06,0.00,0.00,-0.11
8700,0.06,0.00,0.00,0.00,0.01,-0.10
8710,0.06,0.06,-0.06,0.00,0.00,-0.09
8720,-0.06,-0.19,0.06,0.01,0.01,-0.13
8730,0.00,-0.06,0.06,0.00,-0.01,-0.13
8740,-0.13,-0.13,0.00,-0.01,-0.01,-0.11
8750,0.00,0.13,0.00,0.00,-0.01,-0.11
8760,-0.06,0.19,-0.06,0.00,0.01,-0.12
8770,-0.06,0.06,0.06,0.02,0.03,-0.08
8780,0.00,-0.06,0.06,0.00,-0.01,-0.15
8790,-0.06,0.06,-0.06,-0.01,0.01,-0.10
8800,0.00,0.13,-0.06,0.00,-0.01,-0.13
8810,0.00,-0.06,0.13,0.01,0.00,-0.14
8820,0.13,0.19,0.06,0.00,0.00,-0.14
8830,-0.13,-0.06,0.19,0.00,0.02,-0.10
8840,0.06,-0.06,-0.06,0.00,-0.01,-0.12
8850,-0.06,-0.06,0.00,0.00,-0.02,-0.12
8860,0.06,0.13,0.06,0.00,0.03,-0.10
8870,-0.06,0.13,0.06,0.00,-0.01,-0.15
8880,-0.06,0.06,0.13,0.01,0.00,-0.14
8890,0.06,-0.06,0.00,0.01,0.00,-0.11
8900,0.00,-0.06,0.00,0.00,0.01,-0.08
8910,0.13,-0.06,0.00,0.01,0.00,-0.12
8920,-0.06,-0.13,0.00,0.00,0.02,-0.10
8930,0.13,0.13,-0.06,0.00,0.00,-0.11
8940,-0.13,-0.13,0.00,-0.02,-0.02,-0.11
8950,0.06,0.00,0.13,-0.02,0.02,-0.11
8960,-0.13,0.06,0.06,-0.01,0.00,-0.11
8970,0.00,-0.06,-0.06,0.00,-0.02,-0.11
8980,-0.13,0.06,0.00,0.00,0.00,-0.11
8990,0.00,0.06,0.00,0.00,0.01,-0.11
9000,0.00,0.00,-0.13,0.00,0.00,-0.09
9010,-0.06,0.13,0.06,0.00,0.00,-0.07
9020,0.19,0.06,0.00,0.00,-0.01,-0.10
9030,-0.06,0.00,0.00,0.00,0.04,-0.11
9040,0.06,0.00,0.00,0.02,0.00,-0.12
9050,-0.13,0.19,-0.06,0.01,-0.01,-0.10
9060,0.19,0.06,0.00,0.00,-0.02,-0.14
9070,0.00,0.06,0.25,0.00,0.01,-0.09
9080,0.00,0.00,0.06,0.01,0.02,-0.12
9090,-0.13,0.00,0.00,0.02,-0.01,-0.11
9100,0.13,0.13,-0.06,0.00,0.02,-0.11
9110,0.00,0.00,0.13,0.01,0.00,-0.08
9120,0.00,-0.06,0.13,0.00,-0.01,-0.14
9130,0.06,-0.13,-0.06,-0.01,0.00,-0.14
9140,0.00,-0.13,0.06,0.00,-0.01,-0.10
9150,-0.06,-0.06,0.00,0.00,0.00,-0.10
9160,0.00,0.13,-0.06,-0.01,-0.02,-0.12
9170,-0.06,0.00,-0.06,0.00,0.04,-0.12
9180,0.13,0.00,-0.13,0.00,-0.01,-0.15
