timestamp,gyrox,gyroy,gyroz,accx,accy,accz
10,0.00,-0.25,-0.13,0.00,0.00,0.00
20,0.00,0.06,-0.13,0.00,0.00,0.00
30,-0.19,-0.25,-0.13,0.00,0.00,0.00
40,0.00,-0.06,-0.06,-0.36,-0.46,-19.70
50,0.06,-0.25,-0.13,-0.35,-0.45,-19.72
60,-0.06,-0.13,-0.06,-0.35,-0.45,-19.73
70,0.06,-0.31,0.13,-0.37,-0.43,-19.72
80,-0.19,-0.19,0.00,-0.34,-0.45,-19.71
90,0.00,-0.31,-0.13,-0.01,0.00,-0.07
100,-0.19,-0.19,0.00,0.00,-0.01,-0.14
110,0.06,-0.13,-0.19,0.00,-0.02,-0.15
120,-0.25,-0.19,-0.13,-0.01,0.00,-0.11
130,-0.06,-0.25,0.00,0.00,-0.01,-0.14
140,-0.06,-0.37,0.00,-0.01,-0.03,-0.13
150,-0.06,-0.13,-0.06,0.00,0.00,-0.16
160,0.00,-0.25,-0.06,0.00,0.00,-0.09
170,-0.13,-0.13,-0.13,-0.02,-0.02,-0.14
180,0.19,-0.19,0.06,0.00,-0.03,-0.15
190,-0.19,-0.25,-0.19,0.00,0.00,-0.10
200,-0.06,-0.19,-0.06,0.00,-0.03,-0.14
210,-0.19,-0.19,-0.06,-0.01,0.00,-0.13
220,0.00,-0.37,-0.19,0.00,-0.01,-0.12
230,-0.25,-0.25,0.00,0.00,0.00,-0.05
240,-0.06,-0.13,0.06,0.00,-0.01,-0.13
250,-0.13,-0.25,-0.19,0.00,0.00,-0.12
260,-0.06,-0.19,-0.06,0.00,0.00,-0.11
270,-0.06,-0.19,0.06,-0.01,-0.01,-0.12
280,-0.19,-0.19,-0.06,0.00,0.00,-0.12
290,0.00,-0.25,0.06,-0.01,0.00,-0.11
300,-0.06,-0.13,-0.06,0.00,0.00,-0.14
310,-0.13,-0.25,-0.19,0.00,-0.02,-0.14
320,-0.19,-0.44,-0.06,0.00,-0.01,-0.13
330,0.06,-0.13,0.00,-0.01,0.00,-0.11
340,-0.06,-0.31,0.00,0.00,-0.03,-0.12
350,0.00,-0.25,0.00,0.01,0.00,-0.15
360,-0.13,-0.19,0.00,0.00,0.00,-0.12
370,-0.06,0.06,-0.06,0.01,-0.03,-0.13
380,-0.06,-0.19,-0.13,0.00,0.00,-0.13
390,-0.06,-0.31,-0.19,0.00,-0.01,-0.10
400,0.00,-0.13,-0.13,0.00,-0.01,-0.12
410,-0.25,-0.06,-0.06,0.02,-0.01,-0.16
420,-0.06,-0.13,-0.13,0.00,-0.02,-0.11
430,-0.13,-0.13,-0.06,-0.01,0.00,-0.11
440,0.00,-0.31,0.13,-0.01,-0.01,-0.12
450,-0.06,-0.13,-0.19,0.00,-0.01,-0.12
460,0.13,-0.25,-0.13,0.01,0.00,-0.13
470,-0.06,-0.19,0.00,0.00,0.00,-0.10
480,-0.13,-0.25,-0.19,0.01,-0.01,-0.12
490,-0.13,-0.25,-0.06,0.00,0.00,-0.14
500,-0.19,-0.19,-0.19,0.00,0.00,-0.13
510,0.06,-0.19,0.00,0.00,0.00,-0.13
520,0.00,-0.19,0.00,-0.01,-0.01,-0.11
530,-0.31,-0.06,-0.13,0.00,-0.02,-0.09
540,-0.06,-0.19,-0.06,0.00,0.00,-0.10
550,-0.06,-0.19,-0.06,0.02,-0.01,-0.15
560,0.00,-0.19,-0.06,-0.01,0.00,-0.11
570,-0.13,-0.25,-0.06,-0.01,0.00,-0.10
580,-0.06,-0.25,-0.13,0.00,-0.02,-0.10
590,-0.19,-0.13,-0.06,0.00,0.00,-0.11
600,0.06,-0.31,0.00,0.00,0.00,-0.13
610,-0.13,-0.13,0.13,0.00,0.00,-0.12
620,0.00,-0.06,0.00,0.01,-0.01,-0.14
630,0.00,-0.31,0.06,0.00,0.00,-0.13
640,0.06,-0.19,-0.13,0.00,0.00,-0.14
650,-0.13,-0.31,0.00,-0.01,0.01,-0.12
660,-0.13,-0.13,-0.06,0.00,0.00,-0.15
670,-0.06,-0.19,0.06,-0.01,0.00,-0.10
680,-0.19,-0.19,0.00,0.00,0.02,-0.10
690,0.19,0.13,0.06,0.00,0.00,-0.15
700,-0.06,0.00,0.00,0.01,0.00,-0.12
710,0.19,0.13,0.00,-0.01,-0.01,-0.13
720,0.00,0.06,0.06,-0.01,0.01,-0.09
730,0.13,0.06,0.13,0.01,-0.04,-0.13
740,-0.13,0.06,-0.13,0.01,0.02,-0.09
750,0.13,0.13,0.00,0.01,-0.03,-0.14
760,0.00,-0.13,0.00,0.00,0.00,-0.10
770,-0.06,-0.06,0.06,0.01,0.00,-0.10
780,0.19,0.00,-0.06,-0.02,-0.01,-0.10
790,-0.06,-0.13,-0.06,-0.01,-0.03,-0.12
800,0.06,0.00,0.00,0.00,-0.01,-0.15
810,-0.19,-0.06,0.00,0.01,0.00,-0.10
820,0.13,0.13,0.00,0.01,0.00,-0.09
830,-0.25,-0.06,-0.06,0.00,0.00,-0.13
840,0.00,0.13,0.06,-0.01,-0.03,-0.13
850,-0.06,0.06,0.06,0.00,0.00,-0.13
860,0.13,-0.06,-0.13,-0.01,-0.03,-0.15
870,-0.06,-0.13,0.00,0.00,0.00,-0.13
880,0.00,-0.13,0.00,0.00,0.00,-0.11
890,0.00,0.00,0.00,0.00,0.00,-0.11
900,0.13,0.00,0.06,0.00,0.00,-0.14
910,0.06,0.06,0.13,0.00,0.00,-0.14
920,0.00,-0.13,0.06,0.00,0.00,-0.10
930,0.00,0.13,0.06,0.01,-0.02,-0.10
940,0.00,0.00,0.13,-0.01,0.01,-0.12
950,0.06,0.06,0.00,0.00,-0.01,-0.16
960,-0.13,0.06,0.13,0.00,0.00,-0.14
970,-0.13,0.06,-0.06,-0.01,0.00,-0.15
980,0.06,0.06,-0.13,-0.01,-0.01,-0.09
990,0.00,-0.13,0.06,-0.01,0.00,-0.13
1000,0.13,0.00,0.06,0.02,-0.03,-0.14
1010,-0.13,-0.13,0.00,-0.01,0.00,-0.11
1020,0.00,-0.13,0.00,0.00,-0.02,-0.14
1030,-0.06,-0.13,0.00,0.00,0.00,-0.10
1040,-0.06,0.06,0.00,0.00,0.00,-0.12
1050,-0.06,0.13,0.00,0.01,0.00,-0.10
1060,0.06,-0.06,-0.13,0.00,-0.03,-0.15
1070,0.13,0.06,0.00,0.00,-0.02,-0.12
1080,-0.19,0.00,0.00,0.00,-0.01,-0.11
1090,0.06,-0.06,0.06,0.00,0.00,-0.12
1100,0.00,0.00,-0.06,0.00,0.00,-0.14
1110,0.13,0.13,-0.13,0.00,-0.03,-0.13
1120,0.00,0.13,0.06,0.00,0.00,-0.10
1130,0.06,0.00,-0.06,0.00,-0.03,-0.16
1140,-0.13,0.00,0.00,0.00,0.00,-0.11
1150,0.13,0.19,-0.06,0.01,-0.03,-0.14
1160,-0.06,0.06,0.00,-0.01,0.00,-0.13
1170,0.06,0.13,0.06,0.00,0.00,-0.14
1180,0.06,0.13,0.06,0.00,0.00,-0.08
1190,-0.19,-0.06,0.06,0.00,0.00,-0.13
1200,0.00,0.00,0.00,-0.01,-0.01,-0.14
1210,-0.06,0.00,-0.06,0.00,0.01,-0.13
1220,0.13,-0.06,0.00,0.01,0.00,-0.10
1230,0.06,-0.06,0.00,0.00,0.00,-0.12
1240,0.06,0.06,-0.06,0.02,0.00,-0.14
1250,0.06,0.06,-0.06,0.00,0.00,-0.13
1260,0.00,0.06,-0.06,0.00,-0.01,-0.12
1270,0.00,-0.13,0.00,0.00,0.00,-0.12
1280,0.00,-0.06,0.06,-0.02,-0.03,-0.11
1290,-0.06,-0.19,0.00,-0.01,0.00,-0.11
1300,0.00,0.06,-0.19,0.01,0.00,-0.09
1310,0.00,-0.19,0.00,0.00,-0.02,-0.15
1320,-0.06,-0.13,-0.06,-0.01,0.00,-0.14
1330,0.06,0.13,-0.06,0.00,-0.01,-0.08
1340,-0.13,0.13,0.06,0.00,-0.01,-0.13
1350,-0.06,0.06,-0.13,-0.01,-0.01,-0.16
1360,-0.06,-0.06,0.19,0.00,0.00,-0.10
1370,-0.06,0.06,0.00,0.01,-0.02,-0.13
1380,-0.06,0.06,0.00,0.00,-0.02,-0.12
1390,-0.06,0.13,-0.13,0.00,0.00,-0.10
1400,0.06,0.00,0.00,0.00,0.00,-0.14
1410,0.00,-0.06,0.00,0.00,-0.01,-0.14
1420,0.13,0.00,0.00,-0.02,0.00,-0.12
1430,-0.06,0.13,0.06,0.00,0.00,-0.12
1440,-0.06,0.00,-0.06,0.02,-0.02,-0.14
1450,0.00,0.00,-0.13,-0.01,0.00,-0.10
1460,-0.06,0.00,0.06,0.00,0.01,-0.12
1470,0.06,-0.06,-0.06,-0.02,-0.02,-0.10
1480,0.06,-0.06,-0.06,0.00,-0.01,-0.11
1490,0.06,0.00,-0.06,0.00,0.00,-0.09
1500,0.06,-0.13,0.13,0.01,-0.01,-0.15
1510,-0.06,-0.06,0.13,0.01,-0.04,-0.12
1520,-0.06,-0.13,0.06,0.01,0.01,-0.14
1530,0.00,0.06,0.06,0.00,0.01,-0.09
1540,0.06,-0.13,0.06,-0.01,0.00,-0.10
1550,0.06,-0.13,0.06,0.00,-0.02,-0.15
1560,0.13,0.00,0.00,-0.02,0.02,-0.09
1570,-0.13,-0.19,0.06,-0.01,0.03,-0.08
1580,-0.13,-0.19,0.06,-0.01,-0.02,-0.14
1590,0.19,-0.06,0.00,-0.01,0.00,-0.11
1600,-0.06,0.00,-0.19,0.00,0.00,-0.12
1610,0.13,-0.19,0.06,0.00,0.00,-0.10
1620,0.00,-0.13,-0.13,0.00,-0.01,-0.15
1630,0.06,-0.06,0.13,-0.02,0.00,-0.07
1640,0.00,-0.13,-0.06,0.00,-0.04,-0.10
1650,0.00,0.19,0.06,0.00,0.00,-0.12
1660,0.13,-0.13,-0.06,0.00,0.00,-0.10
1670,0.06,0.00,0.00,0.00,0.00,-0.11
1680,-0.13,0.06,0.00,0.00,-0.02,-0.12
1690,-0.06,0.06,-0.06,0.00,-0.04,-0.14
1700,-0.06,0.13,-0.06,0.01,0.00,-0.12
1710,0.00,0.06,0.00,0.00,0.00,-0.12
1720,-0.25,0.00,0.00,0.00,0.01,-0.13
1730,0.00,0.13,-0.06,0.00,0.00,-0.10
1740,0.00,0.19,-0.06,0.00,0.00,-0.11
1750,-0.06,0.06,0.06,-0.02,-0.01,-0.14
1760,0.00,0.13,0.00,0.00,-0.01,-0.13
1770,0.00,-0.06,0.06,0.01,-0.01,-0.10
1780,0.00,-0.06,0.06,0.00,0.00,-0.09
1790,-0.06,0.06,-0.06,0.00,-0.01,-0.11
1800,0.00,0.00,-0.06,0.00,0.00,-0.16
1810,0.00,0.00,-0.06,0.01,-0.01,-0.10
1820,0.00,0.13,-0.13,0.00,-0.01,-0.13
1830,0.13,0.19,-0.13,0.00,-0.01,-0.11
1840,0.13,0.13,0.00,-0.01,-0.01,-0.15
1850,-0.06,0.31,0.00,-0.01,-0.01,-0.13
1860,0.06,0.25,-0.13,-0.01,-0.01,-0.11
1870,0.06,0.25,-0.13,0.00,0.00,-0.10
1880,-0.06,0.13,0.13,0.00,0.00,-0.10
1890,0.00,0.00,0.06,-0.01,-0.02,-0.13
1900,-0.06,0.13,0.00,0.00,0.00,-0.12
1910,-0.06,0.13,0.00,0.00,-0.01,-0.12
1920,-0.06,0.00,-0.06,0.00,0.00,-0.10
1930,0.00,0.13,0.00,0.01,-0.02,-0.12
1940,0.00,0.00,0.13,-0.01,0.00,-0.08
1950,0.00,0.06,0.00,0.00,-0.02,-0.16
1960,0.00,0.06,0.00,0.00,-0.04,-0.14
1970,-0.06,-0.06,0.00,0.00,0.00,-0.08
1980,0.13,-0.06,0.00,0.00,0.00,-0.08
1990,0.19,0.00,0.00,0.00,0.00,-0.12
2000,0.19,0.00,0.00,0.00,-0.02,-0.16
2010,-0.06,0.19,0.13,0.00,0.00,-0.12
2020,0.06,0.13,0.19,0.01,-0.01,-0.15
2030,0.06,0.06,0.06,0.01,-0.01,-0.15
2040,-0.06,0.06,0.06,0.00,-0.01,-0.14
2050,-0.06,0.06,0.06,-0.01,0.00,-0.11
2060,0.06,0.19,0.00,0.01,-0.01,-0.14
2070,0.06,0.19,-0.13,0.01,-0.01,-0.14
2080,0.00,-0.06,0.06,0.01,-0.01,-0.14
2090,-0.13,0.00,0.06,0.00,-0.03,-0.10
2100,-0.13,0.00,0.06,-0.01,-0.01,-0.15
2110,0.06,0.13,-0.06,0.00,-0.01,-0.16
2120,-0.06,-0.06,0.00,0.00,0.00,-0.07
2130,0.06,0.19,-0.06,0.00,0.00,-0.07
2140,0.00,0.06,0.00,-0.01,0.00,-0.08
2150,0.00,0.06,0.00,0.00,-0.01,-0.12
2160,-0.19,-0.13,-0.06,0.00,0.00,-0.12
2170,0.06,0.06,-0.06,0.00,0.00,-0.13
2180,0.06,0.19,0.00,0.00,0.00,-0.13
2190,0.06,0.06,0.06,0.00,0.00,-0.10
2200,0.06,0.00,0.06,0.00,-0.01,-0.16
2210,-0.06,-0.06,0.06,0.00,0.00,-0.12
2220,0.13,0.13,-0.06,0.00,-0.01,-0.13
2230,0.19,0.00,-0.06,0.00,-0.01,-0.13
2240,-0.06,-0.13,0.00,0.00,-0.01,-0.12
2250,-0.06,0.00,0.06,0.00,-0.02,-0.11
2260,0.00,-0.06,-0.06,-0.01,0.00,-0.12
2270,-0.06,-0.13,0.13,-0.01,-0.01,-0.10
2280,-0.06,0.00,0.06,-0.01,-0.01,-0.10
2290,-0.13,0.06,0.00,-0.01,-0.01,-0.13
2300,-0.13,0.06,0.00,0.00,0.00,-0.10
2310,0.00,-0.19,0.00,0.00,0.00,-0.13
2320,0.06,-0.06,0.00,0.00,0.00,-0.14
2330,0.00,0.06,0.00,0.00,0.00,-0.14
2340,0.00,-0.06,0.13,-0.01,-0.01,-0.12
2350,0.00,0.00,-0.06,0.00,0.00,-0.13
2360,0.00,0.00,-0.06,0.00,-0.02,-0.11
2370,0.00,0.00,0.00,0.00,0.00,-0.10
2380,0.06,0.00,0.00,0.00,0.00,-0.10
2390,0.06,0.06,0.13,0.00,0.00,-0.09
2400,0.00,0.00,0.06,0.00,-0.01,-0.13
2410,0.06,0.19,-0.06,0.00,0.00,-0.14
2420,0.06,0.13,0.13,0.00,-0.01,-0.12
2430,0.06,0.00,0.06,0.00,-0.01,-0.12
2440,0.00,-0.06,0.00,-0.01,-0.02,-0.15
2450,0.00,0.06,0.00,0.00,-0.01,-0.10
2460,0.06,0.06,0.06,0.01,0.00,-0.10
2470,0.00,-0.06,0.13,0.00,0.00,-0.15
2480,-0.19,0.00,-0.13,0.00,0.00,-0.15
2490,0.06,0.13,0.00,-0.01,0.00,-0.08
2500,-0.06,0.13,0.00,-0.01,0.00,-0.11
2510,0.06,0.13,-0.06,-0.01,-0.04,-0.12
2520,-0.06,0.13,-0.06,-0.01,0.00,-0.10
2530,-0.06,-0.06,0.06,-0.01,0.00,-0.10
2540,-0.13,0.00,-0.19,0.01,0.00,-0.10
2550,0.00,-0.06,0.06,0.00,-0.01,-0.17
2560,0.00,-0.13,0.06,0.00,-0.01,-0.09
2570,-0.06,0.00,0.00,0.00,-0.01,-0.09
2580,-0.06,0.06,0.00,0.00,0.00,-0.13
2590,0.13,0.06,0.00,0.00,0.00,-0.09
2600,0.00,0.06,0.00,0.00,-0.01,-0.09
2610,-0.13,0.06,-0.06,0.00,-0.01,-0.14
2620,0.13,0.00,0.06,-0.01,0.00,-0.11
2630,0.00,-0.06,-0.13,0.00,-0.02,-0.12
2640,0.00,-0.06,0.00,0.00,0.00,-0.10
2650,0.00,0.13,-0.06,-0.01,-0.02,-0.12
2660,-0.06,0.06,-0.06,0.00,0.00,-0.15
2670,0.00,-0.06,0.06,0.01,-0.02,-0.12
2680,0.06,0.06,0.06,0.00,0.00,-0.07
2690,0.00,-0.13,0.06,0.00,-0.01,-0.11
2700,0.00,0.06,0.00,0.00,-0.03,-0.14
2710,0.06,0.00,0.06,0.00,0.00,-0.12
2720,-0.13,0.00,0.00,0.02,-0.02,-0.11
2730,-0.06,0.00,0.13,0.00,-0.01,-0.09
2740,0.00,0.13,0.00,0.00,0.00,-0.13
2750,-0.19,0.06,0.06,0.00,-0.02,-0.09
2760,0.06,0.06,-0.06,0.00,-0.02,-0.14
2770,-0.13,0.06,0.06,0.00,0.00,-0.09
2780,0.13,-0.06,0.06,-0.01,0.00,-0.09
2790,-0.13,0.25,-0.06,0.00,-0.03,-0.12
2800,0.00,0.06,-0.06,-0.01,0.02,-0.09
2810,-0.13,0.06,0.06,-0.01,-0.04,-0.14
2820,0.06,-0.13,-0.06,0.01,0.00,-0.10
2830,-0.13,0.06,0.06,0.00,-0.02,-0.14
2840,-0.06,0.19,0.06,0.00,0.02,-0.09
2850,0.13,0.00,-0.06,0.00,-0.01,-0.13
2860,-0.13,0.00,0.06,0.01,-0.03,-0.14
2870,0.06,0.06,0.06,0.00,0.00,-0.10
2880,-0.06,-0.13,0.13,0.00,0.00,-0.10
2890,0.13,-0.06,-0.06,-0.01,0.00,-0.13
2900,-0.19,0.00,0.00,0.00,-0.02,-0.14
2910,0.19,0.06,0.00,-0.01,0.02,-0.10
2920,0.00,-0.06,0.06,-0.01,-0.02,-0.13
2930,-0.06,-0.13,-0.13,-0.01,0.00,-0.11
2940,0.13,0.00,0.13,0.00,0.00,-0.10
2950,0.06,0.13,0.00,0.00,-0.01,-0.10
2960,0.00,-0.06,0.13,0.00,0.00,-0.16
2970,0.00,0.06,0.00,0.00,-0.01,-0.13
2980,0.00,-0.06,0.06,0.00,-0.02,-0.14
2990,-0.19,-0.13,-0.06,0.00,0.00,-0.12
3000,0.13,0.00,0.00,-0.01,-0.01,-0.11
3010,0.00,0.06,0.00,0.00,-0.02,-0.17
3020,0.06,0.00,0.00,0.00,0.00,-0.10
3030,-0.06,0.19,0.00,-0.01,-0.01,-0.13
3040,0.13,0.06,-0.06,0.00,0.00,-0.10
3050,0.00,-0.06,0.00,0.01,0.00,-0.10
3060,0.00,-0.06,0.13,0.00,-0.02,-0.13
3070,0.00,-0.06,-0.06,-0.01,0.00,-0.13
3080,-0.06,0.06,0.06,0.00,0.00,-0.10
3090,-0.06,0.06,0.00,0.00,0.00,-0.08
3100,0.06,0.00,-0.13,0.00,-0.01,-0.10
3110,-0.06,0.06,-0.06,0.00,-0.03,-0.10
3120,0.13,-0.06,0.19,0.00,-0.01,-0.15
3130,0.00,0.13,0.00,0.00,0.00,-0.12
3140,0.06,0.00,-0.13,0.00,0.00,-0.11
3150,0.00,0.13,0.00,0.02,-0.01,-0.12
3160,0.06,0.19,0.06,0.00,-0.02,-0.12
3170,0.06,0.00,-0.06,0.00,-0.01,-0.13
3180,-0.06,0.00,0.00,0.01,0.00,-0.11
3190,-0.13,-0.06,0.00,-0.01,-0.03,-0.10
3200,-0.13,-0.06,-0.06,-0.01,-0.01,-0.14
3210,0.06,0.13,0.06,0.00,-0.01,-0.14
3220,0.00,-0.19,0.06,0.00,0.00,-0.13
3230,0.06,0.00,0.00,0.00,-0.02,-0.12
3240,-0.19,-0.06,0.19,0.00,-0.01,-0.10
3250,0.06,-0.06,0.06,-0.01,0.00,-0.12
3260,-0.13,-0.06,0.06,0.00,-0.02,-0.09
3270,0.06,-0.19,0.06,0.01,-0.02,-0.15
3280,-0.06,0.00,0.00,0.01,-0.02,-0.13
3290,0.13,0.19,0.13,0.00,0.02,-0.12
3300,-0.06,0.19,-0.13,0.00,0.00,-0.11
3310,0.06,0.06,0.06,-0.01,0.01,-0.13
3320,0.06,0.06,0.00,-0.01,-0.03,-0.13
3330,-0.06,-0.06,0.13,0.00,0.00,-0.08
3340,0.06,0.06,-0.06,0.00,-0.03,-0.12
3350,-0.13,0.13,-0.06,-0.01,0.02,-0.08
3360,0.06,-0.06,0.06,0.01,0.00,-0.07
3370,-0.13,0.00,0.06,0.00,-0.01,-0.12
3380,0.06,0.06,0.00,0.00,0.00,-0.11
3390,-0.06,0.00,-0.06,0.00,0.00,-0.11
3400,0.00,-0.06,0.13,-0.01,0.00,-0.09
3410,-0.13,0.06,0.00,0.00,-0.04,-0.14
3420,-0.13,0.00,0.13,-0.01,0.00,-0.10
3430,0.00,0.06,0.13,0.00,-0.02,-0.11
3440,-0.19,0.06,0.13,0.02,0.00,-0.11
3450,0.06,0.00,0.00,-0.01,-0.01,-0.11
3460,-0.13,0.00,0.00,0.00,0.00,-0.12
3470,0.06,0.06,0.06,0.00,-0.01,-0.13
3480,-0.19,-0.06,0.19,0.00,-0.04,-0.15
3490,0.00,0.19,-0.06,0.00,-0.02,-0.14
3500,-0.06,0.19,0.00,0.00,0.00,-0.11
3510,0.06,0.06,0.06,-0.01,0.00,-0.12
3520,0.06,0.06,0.06,0.02,-0.02,-0.11
3530,0.00,0.00,0.13,0.00,-0.01,-0.13
3540,-0.13,0.00,0.13,0.00,-0.02,-0.13
3550,-0.06,-0.06,-0.13,0.00,-0.02,-0.12
3560,0.06,0.13,0.00,-0.01,0.00,-0.13
3570,-0.06,0.06,-0.06,0.00,0.00,-0.11
3580,0.00,0.06,0.00,0.00,-0.01,-0.14
3590,0.06,0.00,0.00,-0.01,0.00,-0.13
3600,-0.13,0.00,0.06,0.00,-0.01,-0.11
3610,0.06,0.06,0.00,0.00,-0.01,-0.16
3620,-0.06,0.13,-0.06,-0.01,0.00,-0.10
3630,0.13,0.13,0.06,0.00,0.00,-0.12
3640,-0.06,0.00,0.00,0.00,-0.01,-0.13
3650,0.13,0.00,-0.06,0.00,0.00,-0.13
3660,-0.06,0.00,-0.06,0.00,0.00,-0.11
3670,0.06,0.06,-0.19,0.00,0.00,-0.11
3680,0.00,0.13,0.00,0.00,-0.04,-0.15
3690,-0.06,0.00,0.06,-0.01,0.00,-0.09
3700,0.00,-0.06,0.00,0.00,-0.03,-0.11
3710,-0.06,0.19,0.06,-0.01,-0.01,-0.12
3720,0.13,0.00,0.13,0.00,-0.01,-0.12
3730,-0.06,0.00,0.13,-0.01,0.00,-0.10
3740,0.00,-0.19,-0.06,0.00,-0.02,-0.10
3750,-0.25,0.00,0.06,0.00,-0.03,-0.14
3760,0.00,-0.19,0.00,0.01,0.01,-0.14
3770,-0.06,0.00,0.00,0.00,0.00,-0.11
3780,0.13,-0.19,-0.13,0.00,0.00,-0.09
3790,-0.06,-0.06,0.00,0.00,-0.02,-0.13
3800,-0.06,-0.06,-0.06,0.01,0.00,-0.10
3810,-0.13,-0.13,0.00,0.00,0.00,-0.15
3820,0.06,-0.13,0.19,0.01,0.00,-0.09
3830,0.06,0.00,-0.06,0.00,-0.01,-0.12
3840,0.00,0.00,-0.06,-0.01,-0.01,-0.06
3850,0.06,-0.19,-0.06,0.00,0.00,-0.12
3860,-0.19,-0.25,0.13,-0.02,-0.01,-0.16
3870,0.06,0.06,0.00,-0.01,0.00,-0.11
3880,-0.13,0.00,0.00,0.00,-0.01,-0.10
3890,0.13,-0.25,0.06,-0.02,-0.03,-0.14
3900,-0.06,0.00,0.13,0.00,-0.03,-0.16
3910,0.00,-0.06,0.00,-0.01,0.01,-0.12
3920,-0.06,-0.06,0.06,0.00,0.00,-0.12
3930,0.06,0.00,-0.13,0.00,0.00,-0.11
3940,0.00,-0.06,0.00,0.00,0.00,-0.08
3950,0.06,-0.06,-0.06,0.01,0.00,-0.11
3960,-0.06,-0.06,0.00,0.00,-0.01,-0.13
3970,0.00,-0.06,0.06,-0.01,0.00,-0.12
3980,-0.13,-0.06,-0.06,0.00,0.00,-0.11
3990,0.00,-0.06,0.06,0.00,0.01,-0.13
4000,0.00,0.06,0.00,0.00,0.00,-0.11
4010,0.00,0.19,0.00,-0.01,0.01,-0.14
4020,-0.13,-0.13,0.06,0.00,-0.01,-0.10
4030,0.00,-0.13,-0.06,0.00,0.00,-0.10
4040,-0.06,-0.06,0.06,0.00,-0.01,-0.14
4050,0.19,-0.13,0.13,0.00,0.00,-0.11
4060,-0.06,0.00,0.00,0.00,0.00,-0.14
4070,-0.06,0.00,0.06,0.00,-0.01,-0.10
4080,0.00,-0.06,0.06,0.01,-0.02,-0.13
4090,-0.06,-0.13,0.00,-0.01,0.00,-0.12
4100,-0.06,-0.06,0.06,0.01,-0.01,-0.12
4110,-0.13,0.00,-0.06,0.01,-0.01,-0.13
4120,0.00,-0.06,0.00,-0.01,-0.02,-0.14
4130,-0.13,-0.13,0.06,0.00,-0.01,-0.12
4140,0.06,-0.13,0.00,0.00,0.00,-0.09
4150,-0.19,-0.19,0.00,-0.01,-0.02,-0.10
4160,0.13,0.06,-0.06,0.00,-0.03,-0.17
4170,-0.06,-0.19,0.06,-0.01,0.00,-0.16
4180,0.13,-0.06,0.00,0.00,0.00,-0.08
4190,0.00,-0.06,0.06,0.00,-0.01,-0.11
4200,-0.06,0.00,0.00,-0.01,0.00,-0.09
4210,-0.06,0.06,0.00,0.00,0.00,-0.13
4220,-0.13,0.06,0.00,0.00,0.00,-0.09
4230,0.06,0.13,0.00,0.00,-0.04,-0.11
4240,-0.06,0.06,0.00,-0.01,0.02,-0.09
4250,0.06,0.13,0.06,0.00,0.00,-0.10
4260,-0.19,0.06,0.06,0.00,-0.03,-0.15
4270,0.13,0.00,0.00,0.00,0.00,-0.11
4280,-0.06,-0.13,0.00,0.00,0.00,-0.10
4290,-0.06,0.06,0.06,0.00,0.00,-0.07
4300,0.06,0.06,0.00,0.01,0.00,-0.12
4310,0.13,0.00,0.19,-0.01,-0.01,-0.09
4320,0.00,0.06,0.00,0.00,-0.01,-0.14
4330,-0.06,0.00,-0.06,0.00,0.00,-0.12
4340,0.06,0.06,0.06,0.00,-0.01,-0.10
4350,-0.13,0.06,0.00,0.00,0.00,-0.11
4360,0.00,0.06,0.00,0.00,0.00,-0.13
4370,-0.13,0.00,-0.06,0.00,0.01,-0.12
4380,0.00,0.00,-0.06,0.00,-0.01,-0.11
4390,0.06,0.00,-0.06,0.01,-0.01,-0.13
4400,0.00,0.13,0.00,0.00,0.00,-0.09
4410,0.13,-0.06,-0.06,0.00,-0.01,-0.13
4420,0.00,-0.13,0.06,-0.01,-0.01,-0.11
4430,-0.06,-0.06,0.00,-0.01,-0.01,-0.10
4440,0.06,0.13,-0.06,0.00,-0.02,-0.11
4450,0.06,0.06,0.00,0.00,-0.01,-0.10
4460,0.06,0.00,0.00,-0.01,-0.02,-0.13
4470,0.00,0.13,0.06,0.00,0.00,-0.12
4480,0.00,0.13,0.00,0.00,-0.01,-0.13
4490,-0.06,-0.06,0.06,0.00,0.01,-0.09
4500,0.00,0.06,0.00,0.01,-0.01,-0.11
4510,-0.13,0.06,0.00,0.00,0.00,-0.09
4520,0.06,-0.06,0.06,-0.01,0.00,-0.15
4530,-0.06,-0.06,-0.06,0.00,-0.01,-0.13
4540,0.13,0.00,-0.06,0.00,0.00,-0.13
4550,-0.06,-0.13,0.00,0.00,-0.02,-0.06
4560,0.19,0.06,-0.06,-0.01,-0.01,-0.12
4570,0.00,0.00,0.00,0.00,0.00,-0.14
4580,-0.13,-0.06,0.06,0.00,0.00,-0.09
4590,0.13,-0.06,0.00,0.00,-0.01,-0.13
4600,0.00,0.19,0.00,-0.01,-0.02,-0.10
4610,0.06,-0.13,0.00,-0.01,0.00,-0.14
4620,-0.06,0.00,0.06,0.00,0.00,-0.10
4630,0.06,0.13,0.06,0.00,0.00,-0.09
4640,-0.06,0.00,0.06,0.00,-0.01,-0.12
4650,0.06,0.00,-0.06,0.00,0.00,-0.12
4660,-0.13,0.00,0.00,0.01,-0.01,-0.10
4670,0.06,0.19,0.00,-0.01,0.00,-0.12
4680,0.00,0.06,0.06,0.01,-0.02,-0.12
4690,-0.06,-0.06,0.00,0.00,-0.03,-0.11
4700,0.06,0.06,-0.06,0.00,-0.01,-0.13
4710,0.06,0.00,0.00,0.00,-0.02,-0.12
4720,0.00,-0.13,0.06,0.00,-0.01,-0.12
4730,-0.13,-0.19,0.00,0.01,0.00,-0.09
4740,0.00,-0.13,-0.06,0.00,-0.02,-0.11
4750,-0.06,-0.19,0.06,-0.02,-0.03,-0.12
4760,0.00,0.00,-0.13,0.00,-0.01,-0.13
4770,-0.06,0.13,0.13,0.00,-0.01,-0.12
4780,0.00,0.06,0.00,0.00,-0.01,-0.12
4790,0.06,0.13,-0.06,0.00,-0.01,-0.14
4800,0.00,0.00,-0.06,0.00,0.00,-0.10
4810,0.13,-0.06,-0.06,0.00,-0.02,-0.14
4820,0.00,-0.06,0.06,0.00,0.00,-0.10
4830,0.00,0.13,-0.06,-0.01,-0.01,-0.10
4840,-0.06,0.00,0.13,0.00,-0.02,-0.13
4850,-0.06,0.00,0.06,0.00,0.00,-0.10
4860,-0.06,0.00,-0.06,0.00,0.00,-0.11
4870,0.00,-0.06,0.06,-0.01,-0.01,-0.10
4880,-0.06,0.06,-0.06,0.00,-0.02,-0.15
4890,-0.06,0.06,0.00,-0.01,0.00,-0.11
4900,0.25,0.19,0.00,0.00,0.00,-0.11
4910,-0.13,0.00,0.00,0.01,-0.03,-0.12
4920,0.13,0.06,-0.06,0.00,-0.01,-0.13
4930,-0.13,0.06,0.06,-0.01,0.00,-0.09
4940,0.06,0.00,0.00,0.00,0.00,-0.07
4950,-0.06,0.00,0.00,0.00,-0.03,-0.11
4960,0.00,-0.06,-0.06,-0.01,0.00,-0.12
4970,-0.06,0.06,-0.06,0.00,-0.03,-0.13
4980,-0.06,0.06,0.00,0.00,0.00,-0.12
4990,0.06,0.00,0.19,-0.01,-0.01,-0.12
5000,-0.06,-0.06,0.00,0.00,0.00,-0.10
5010,0.00,0.13,0.00,0.00,-0.01,-0.16
5020,0.00,-0.06,0.19,0.00,-0.02,-0.11
5030,0.00,0.00,0.00,0.00,-0.01,-0.10
5040,0.06,-0.13,0.00,-0.01,-0.02,-0.10
5050,0.00,0.00,0.06,0.00,0.01,-0.11
5060,-0.06,-0.06,-0.06,0.00,0.00,-0.14
5070,0.00,0.13,0.06,0.02,0.00,-0.09
5080,0.00,0.06,-0.06,0.00,-0.02,-0.13
5090,-0.13,-0.19,-0.06,0.00,0.00,-0.12
5100,-0.06,0.00,0.00,0.00,0.00,-0.13
5110,-0.06,0.25,0.13,0.00,-0.01,-0.12
5120,0.00,0.00,-0.06,0.00,-0.01,-0.14
5130,-0.19,-0.06,0.25,-0.02,-0.01,-0.07
5140,0.06,0.00,0.13,-0.02,0.01,-0.12
5150,0.06,-0.25,0.06,0.00,-0.01,-0.11
5160,-0.06,0.00,-0.06,-0.01,-0.01,-0.10
5170,0.00,-0.13,0.06,-0.01,-0.01,-0.11
5180,-0.13,0.13,0.06,0.00,-0.02,-0.10
5190,0.06,0.06,0.00,0.00,-0.01,-0.11
5200,-0.13,-0.06,-0.06,-0.01,0.00,-0.10
5210,0.06,0.00,-0.06,-0.01,0.01,-0.15
5220,-0.19,-0.19,0.06,-0.01,-0.01,-0.09
5230,0.13,0.13,-0.13,0.00,-0.01,-0.14
5240,0.00,0.06,0.00,0.00,-0.02,-0.08
5250,-0.06,-0.06,-0.06,-0.01,-0.02,-0.10
5260,-0.06,-0.13,0.06,0.00,-0.01,-0.13
5270,0.00,0.06,0.06,-0.01,0.00,-0.11
5280,0.13,-0.06,0.00,0.01,0.00,-0.12
5290,-0.06,-0.06,0.00,0.00,-0.02,-0.10
5300,0.13,0.00,0.00,-0.01,-0.03,-0.13
5310,0.06,0.00,-0.06,-0.01,0.00,-0.12
5320,0.06,-0.06,0.13,0.00,-0.03,-0.15
5330,0.00,0.00,0.00,0.00,0.00,-0.13
5340,-0.13,0.00,0.06,0.00,0.00,-0.11
5350,-0.13,0.00,0.06,0.00,0.00,-0.13
5360,0.00,0.13,0.06,-0.01,-0.01,-0.12
5370,0.06,0.13,0.06,0.00,-0.03,-0.15
5380,-0.06,-0.06,-0.06,0.00,0.00,-0.12
5390,0.00,0.06,-0.06,0.00,-0.03,-0.12
5400,0.06,-0.06,0.00,0.00,0.00,-0.06
5410,0.19,-0.13,0.13,0.00,0.00,-0.11
5420,-0.13,-0.13,0.00,0.00,0.00,-0.12
5430,0.13,-0.13,0.13,0.00,0.00,-0.13
5440,0.00,-0.13,0.06,0.00,0.00,-0.07
5450,0.00,-0.13,0.00,-0.01,0.01,-0.09
5460,0.00,0.00,0.06,0.00,-0.02,-0.16
5470,0.06,0.06,0.00,0.00,0.01,-0.09
5480,-0.06,-0.06,-0.06,0.00,0.00,-0.10
5490,0.00,0.06,0.06,0.00,-0.01,-0.13
5500,0.00,0.06,0.00,0.00,-0.01,-0.12
5510,0.00,-0.06,-0.06,0.00,0.00,-0.10
5520,0.00,-0.06,-0.13,0.00,0.00,-0.09
5530,-0.13,0.00,0.06,-0.01,-0.02,-0.12
5540,0.13,0.13,-0.06,0.00,0.00,-0.09
5550,-0.06,0.13,0.06,-0.02,-0.01,-0.14
5560,-0.13,0.00,0.06,0.00,-0.02,-0.13
5570,0.06,0.06,0.06,0.00,0.00,-0.13
5580,-0.06,0.13,0.06,0.00,0.00,-0.10
5590,0.06,0.06,0.06,0.00,-0.03,-0.13
5600,0.00,0.06,0.06,-0.01,-0.04,-0.11
5610,0.25,0.19,0.13,0.01,0.00,-0.11
5620,-0.13,0.00,0.06,0.00,-0.01,-0.10
5630,0.00,0.00,0.00,-0.01,0.00,-0.13
5640,-0.13,0.06,0.13,0.00,-0.02,-0.15
5650,-0.06,0.06,0.19,0.00,0.00,-0.10
5660,0.06,0.06,0.00,0.00,-0.03,-0.13
5670,0.00,-0.06,0.00,0.00,0.00,-0.14
5680,0.06,0.19,0.00,0.01,0.00,-0.11
5690,-0.13,-0.06,0.00,-0.01,0.00,-0.09
5700,0.00,-0.13,0.00,0.01,0.00,-0.12
5710,0.00,-0.13,0.06,0.00,0.00,-0.12
5720,0.06,0.00,-0.06,0.00,-0.02,-0.09
5730,0.00,-0.13,-0.13,0.00,-0.04,-0.11
5740,0.00,-0.13,0.00,-0.01,0.00,-0.13
5750,0.00,-0.13,0.00,0.00,0.00,-0.12
5760,0.06,-0.13,0.00,0.00,0.00,-0.13
5770,0.06,0.06,-0.06,0.01,-0.02,-0.12
5780,-0.06,0.13,0.00,0.00,-0.01,-0.13
5790,0.06,-0.13,0.13,0.00,-0.02,-0.13
5800,0.00,-0.06,0.13,0.00,-0.01,-0.12
5810,0.00,0.00,-0.06,0.00,0.00,-0.13
5820,-0.06,0.00,0.06,0.00,0.00,-0.10
5830,-0.06,-0.19,0.00,0.00,-0.02,-0.11
5840,-0.06,-0.06,0.00,0.00,0.00,-0.11
5850,0.19,0.13,0.00,-0.01,0.00,-0.14
5860,0.06,-0.06,-0.06,0.00,0.00,-0.13
5870,0.00,0.00,0.00,0.00,-0.02,-0.12
5880,-0.06,-0.13,0.06,0.00,-0.01,-0.10
5890,0.00,0.00,-0.06,-0.01,-0.02,-0.08
5900,0.00,0.06,-0.13,0.00,-0.01,-0.12
5910,0.00,0.00,0.06,0.00,0.00,-0.11
5920,0.06,-0.06,0.00,0.00,-0.01,-0.12
5930,0.00,-0.13,0.00,0.00,-0.01,-0.10
5940,0.06,-0.19,-0.06,0.00,-0.01,-0.13
5950,0.06,-0.06,-0.06,0.00,0.00,-0.15
5960,-0.06,-0.06,-0.06,0.00,0.00,-0.08
5970,0.06,-0.19,-0.06,0.00,-0.01,-0.13
5980,-0.13,-0.06,0.06,-0.01,0.00,-0.12
5990,0.13,-0.06,0.00,0.01,-0.01,-0.11
6000,-0.25,-0.06,0.13,-0.03,0.00,-0.08
6010,0.00,-0.13,0.00,0.00,-0.02,-0.14
6020,-0.06,-0.13,0.13,0.00,-0.04,-0.16
6030,-0.06,-0.13,-0.06,0.00,0.00,-0.08
6040,0.00,0.00,0.06,0.00,-0.01,-0.10
6050,-0.06,-0.13,0.06,0.00,0.00,-0.11
6060,0.00,0.06,0.00,0.00,-0.02,-0.14
6070,-0.06,-0.19,0.00,0.00,0.00,-0.11
6080,0.06,-0.19,-0.06,0.00,-0.01,-0.13
6090,-0.06,-0.13,0.06,0.00,-0.01,-0.11
6100,0.13,-0.19,0.00,0.00,0.00,-0.10
6110,0.00,-0.19,0.06,0.00,-0.01,-0.13
6120,0.06,-0.06,-0.06,-0.01,-0.01,-0.11
6130,-0.13,0.13,0.00,-0.01,-0.01,-0.08
6140,0.06,-0.06,-0.06,-0.01,0.00,-0.12
6150,-0.06,-0.13,0.00,0.00,-0.02,-0.12
6160,-0.06,0.06,-0.06,0.00,0.00,-0.13
6170,0.06,-0.19,-0.06,0.00,0.00,-0.14
6180,-0.06,-0.19,0.00,0.00,0.00,-0.09
6190,-0.13,-0.06,0.06,0.00,-0.02,-0.12
6200,-0.06,0.06,0.13,-0.02,0.00,-0.08
6210,0.06,0.13,0.00,0.00,-0.02,-0.13
6220,0.00,0.00,-0.06,0.01,-0.02,-0.12
6230,-0.13,-0.06,0.06,0.01,0.00,-0.11
6240,0.00,0.00,0.00,-0.01,-0.04,-0.10
6250,-0.06,0.13,0.00,0.00,0.00,-0.10
6260,0.06,-0.13,0.06,0.00,-0.01,-0.15
6270,-0.06,-0.06,-0.06,-0.01,0.00,-0.11
6280,0.06,0.00,0.00,0.01,-0.01,-0.10
6290,0.00,-0.06,0.00,-0.01,-0.02,-0.13
6300,0.00,-0.06,-0.06,0.00,0.00,-0.11
6310,-0.13,-0.13,0.13,0.00,-0.02,-0.15
6320,0.06,-0.13,-0.13,0.00,0.00,-0.10
6330,0.00,0.00,-0.06,0.00,0.00,-0.12
6340,-0.13,0.13,-0.06,0.00,-0.01,-0.09
6350,0.06,0.06,0.06,-0.01,-0.01,-0.12
6360,0.00,-0.06,0.00,0.00,0.01,-0.09
6370,0.00,-0.06,0.06,0.01,0.00,-0.09
6380,0.06,0.00,0.06,0.00,-0.01,-0.11
6390,0.19,0.19,0.00,-0.01,-0.01,-0.11
6400,-0.06,0.00,-0.13,-0.01,0.00,-0.08
6410,0.00,0.13,0.06,-0.01,0.01,-0.11
6420,0.00,0.13,0.00,0.00,0.00,-0.11
6430,0.06,0.13,0.00,0.00,0.00,-0.07
6440,-0.13,0.00,0.00,-0.01,-0.02,-0.11
6450,0.00,0.13,0.13,-0.01,0.00,-0.10
6460,0.00,0.06,0.06,0.00,-0.02,-0.14
6470,-0.13,0.06,-0.06,0.01,0.01,-0.09
6480,0.06,-0.06,0.00,-0.01,-0.02,-0.13
6490,-0.13,-0.13,0.00,-0.01,0.00,-0.09
6500,0.13,-0.06,-0.13,-0.01,-0.01,-0.11
6510,-0.06,0.00,0.06,-0.01,0.00,-0.11
6520,0.00,-0.06,0.00,0.00,-0.03,-0.12
6530,-0.06,0.13,-0.06,0.00,-0.02,-0.13
6540,-0.06,-0.06,0.00,-0.01,0.00,-0.10
6550,0.00,0.06,-0.06,0.00,0.00,-0.11
6560,0.13,0.19,0.00,-0.01,0.00,-0.14
6570,0.13,0.00,0.06,0.01,-0.01,-0.10
6580,-0.13,0.00,0.00,0.01,0.00,-0.10
6590,0.13,0.13,-0.13,-0.03,-0.02,-0.11
6600,0.00,-0.06,0.06,0.02,-0.02,-0.16
6610,0.13,0.00,0.00,-0.01,0.00,-0.14
6620,-0.06,0.06,0.06,0.00,-0.02,-0.13
6630,0.00,-0.06,0.06,0.00,0.02,-0.07
6640,0.06,0.00,-0.19,-0.01,0.00,-0.12
6650,-0.06,-0.13,0.06,0.00,0.00,-0.09
6660,0.13,0.06,0.06,0.00,0.00,-0.14
6670,-0.13,0.06,-0.06,-0.01,0.00,-0.11
6680,0.06,-0.06,0.00,0.00,0.00,-0.10
6690,0.06,-0.06,0.00,0.00,-0.02,-0.08
6700,0.00,0.06,0.06,0.00,0.00,-0.12
6710,0.00,0.00,-0.06,0.00,0.00,-0.11
6720,0.06,0.19,0.00,0.00,0.00,-0.07
6730,-0.06,0.19,-0.13,0.00,-0.05,-0.11
6740,-0.06,0.19,-0.13,-0.01,0.00,-0.09
6750,0.06,0.06,-0.06,0.00,-0.01,-0.13
6760,-0.06,0.00,-0.06,0.00,-0.01,-0.13
6770,-0.06,0.00,-0.06,0.00,0.00,-0.13
6780,0.00,-0.13,0.06,0.00,0.00,-0.09
6790,0.00,-0.13,0.06,0.00,-0.02,-0.12
6800,-0.13,-0.06,0.00,0.01,-0.01,-0.13
6810,0.13,0.00,0.00,0.00,0.00,-0.13
6820,-0.06,0.13,0.06,-0.01,-0.03,-0.15
6830,-0.06,0.06,0.06,0.00,-0.02,-0.14
6840,-0.06,0.06,0.06,0.00,-0.02,-0.14
6850,0.06,-0.13,0.00,-0.01,0.00,-0.09
6860,0.00,-0.06,0.00,0.00,-0.02,-0.16
6870,0.06,0.06,0.06,-0.01,-0.02,-0.13
6880,-0.13,0.00,0.06,0.00,0.00,-0.11
6890,0.00,0.06,0.06,0.00,0.00,-0.10
6900,0.00,0.00,0.00,0.01,-0.01,-0.12
6910,0.13,-0.06,0.00,0.00,0.00,-0.12
6920,-0.06,-0.13,0.06,-0.01,0.00,-0.14
6930,-0.06,0.00,0.13,0.02,-0.01,-0.12
6940,0.13,0.00,0.19,-0.01,0.00,-0.11
6950,0.00,0.00,0.00,0.00,-0.01,-0.13
6960,0.06,0.00,0.00,-0.01,-0.02,-0.13
6970,0.00,0.06,0.00,0.00,0.00,-0.10
6980,0.00,0.00,-0.06,-0.01,0.00,-0.13
6990,-0.13,-0.06,0.19,0.00,0.00,-0.10
7000,0.00,0.00,-0.13,0.00,0.00,-0.11
7010,0.06,-0.13,0.00,0.00,-0.01,-0.14
7020,0.06,0.00,0.13,0.00,-0.01,-0.13
7030,0.00,0.00,0.06,0.00,0.00,-0.14
7040,-0.06,-0.13,0.00,0.00,-0.01,-0.11
7050,0.13,-0.06,0.06,0.00,0.02,-0.11
7060,0.00,-0.06,0.00,0.00,0.00,-0.14
7070,0.06,0.06,-0.06,0.00,-0.02,-0.10
7080,-0.13,-0.13,0.00,0.00,-0.01,-0.12
7090,0.13,0.06,0.13,-0.01,0.00,-0.09
7100,0.06,0.13,-0.13,0.00,-0.04,-0.13
7110,0.06,0.19,0.00,0.01,-0.01,-0.13
7120,-0.13,-0.13,0.00,-0.01,0.00,-0.08
7130,0.06,0.13,0.00,0.00,0.00,-0.12
7140,0.00,0.00,-0.06,0.00,0.00,-0.13
7150,-0.13,0.06,0.00,-0.01,-0.03,-0.11
7160,0.13,0.00,0.00,0.00,0.00,-0.09
7170,0.06,0.06,-0.06,0.00,-0.02,-0.14
7180,0.13,0.06,0.00,0.00,0.00,-0.14
7190,-0.06,-0.13,0.00,0.00,0.00,-0.14
7200,-0.06,-0.13,-0.13,0.00,-0.01,-0.13
7210,-0.06,-0.06,0.00,-0.01,0.00,-0.12
7220,0.06,-0.06,0.06,0.00,-0.03,-0.12
7230,0.00,0.13,0.00,0.00,0.00,-0.10
7240,0.00,0.13,-0.06,0.00,0.00,-0.10
7250,-0.06,0.00,0.00,-0.01,0.00,-0.10
7260,-0.06,-0.06,0.00,-0.01,0.00,-0.12
7270,0.06,0.06,-0.06,-0.01,-0.02,-0.15
7280,-0.06,0.00,0.13,-0.01,0.00,-0.13
7290,0.00,0.06,0.00,-0.01,0.00,-0.13
7300,0.00,0.19,0.13,0.00,-0.01,-0.14
7310,0.00,0.00,0.00,-0.01,-0.01,-0.15
7320,0.06,-0.06,-0.06,-0.02,0.00,-0.14
7330,-0.06,0.00,0.06,0.00,-0.01,-0.10
7340,0.00,-0.06,-0.06,0.00,-0.01,-0.10
7350,-0.13,-0.13,-0.06,0.01,-0.01,-0.14
7360,0.13,-0.13,0.06,0.00,0.00,-0.12
7370,-0.19,-0.13,0.06,0.00,-0.01,-0.15
7380,0.13,0.00,0.06,0.00,-0.02,-0.12
7390,-0.25,-0.06,0.06,0.00,-0.02,-0.12
7400,0.06,0.06,0.00,-0.02,0.00,-0.09
7410,-0.06,0.13,0.06,0.00,0.00,-0.12
7420,-0.13,0.13,0.00,-0.01,-0.05,-0.10
7430,0.13,0.06,0.06,0.00,-0.01,-0.11
7440,-0.13,-0.06,0.13,0.00,-0.01,-0.11
7450,0.25,0.00,-0.06,0.01,0.00,-0.15
7460,0.00,0.00,-0.13,0.01,-0.01,-0.12
7470,0.00,0.06,0.06,0.00,-0.02,-0.12
7480,-0.06,0.06,0.00,0.00,0.00,-0.11
7490,-0.06,-0.06,0.13,0.00,0.00,-0.11
7500,0.00,0.00,0.06,0.01,0.00,-0.08
7510,0.06,-0.13,0.13,0.00,-0.04,-0.14
7520,0.13,0.06,-0.13,0.00,0.00,-0.11
7530,-0.06,-0.06,-0.06,0.00,0.00,-0.13
7540,0.00,0.00,0.06,0.00,0.00,-0.13
7550,-0.06,0.06,-0.13,0.01,-0.01,-0.14
7560,0.06,-0.13,0.00,-0.01,0.00,-0.13
7570,-0.06,0.13,-0.06,-0.02,0.00,-0.11
7580,0.13,0.06,0.06,0.00,-0.03,-0.14
7590,-0.13,-0.06,0.06,0.00,-0.03,-0.14
7600,-0.13,-0.06,0.00,0.02,-0.01,-0.12
7610,-0.13,0.00,0.00,-0.01,0.00,-0.12
7620,-0.06,0.06,0.06,0.02,-0.01,-0.14
7630,0.06,0.13,0.00,0.00,0.00,-0.11
7640,0.00,0.06,-0.13,0.00,0.00,-0.11
7650,0.13,0.06,0.06,0.00,-0.01,-0.10
7660,-0.19,-0.13,0.00,-0.01,-0.01,-0.12
7670,0.13,0.13,-0.06,0.00,0.00,-0.10
7680,-0.06,0.00,0.19,0.02,-0.01,-0.13
7690,0.00,-0.13,0.00,0.02,-0.01,-0.13
7700,-0.13,0.00,0.13,0.00,0.01,-0.11
7710,-0.06,-0.06,-0.06,-0.01,-0.02,-0.13
7720,0.06,-0.06,-0.06,-0.01,0.00,-0.09
7730,-0.13,-0.13,-0.06,0.01,-0.01,-0.11
7740,0.06,0.00,-0.06,0.01,-0.01,-0.11
7750,-0.19,-0.06,0.06,0.00,0.00,-0.14
7760,0.00,-0.06,0.06,0.00,-0.04,-0.15
7770,-0.25,0.06,-0.13,0.00,0.00,-0.09
7780,0.00,0.06,0.00,0.02,0.00,-0.09
7790,0.06,-0.25,0.06,0.02,0.00,-0.09
7800,0.06,0.00,0.13,-0.01,-0.01,-0.11
7810,0.00,0.06,0.00,0.00,0.00,-0.11
7820,-0.13,0.06,0.00,0.00,-0.02,-0.14
7830,0.13,0.00,-0.06,-0.01,0.01,-0.11
7840,-0.13,0.19,0.00,-0.01,0.01,-0.11
7850,0.06,0.19,0.00,0.00,0.00,-0.12
7860,-0.13,-0.13,0.00,0.00,-0.02,-0.13
7870,0.00,0.00,-0.06,-0.01,0.01,-0.12
7880,-0.13,0.06,0.06,0.00,0.00,-0.10
7890,0.13,0.25,0.13,0.00,0.00,-0.10
7900,-0.19,0.06,0.00,0.00,-0.01,-0.12
7910,-0.06,-0.13,-0.13,0.01,0.00,-0.10
7920,-0.06,-0.13,0.13,0.01,0.01,-0.09
7930,0.00,0.25,0.13,0.01,0.01,-0.09
7940,-0.06,0.19,0.00,-0.01,-0.02,-0.15
7950,-0.13,0.06,0.00,0.00,0.01,-0.10
7960,-0.06,0.06,-0.13,0.01,-0.01,-0.13
7970,-0.13,-0.13,0.00,0.00,-0.01,-0.13
7980,0.06,-0.06,0.00,0.00,0.00,-0.13
7990,-0.13,0.00,0.13,0.00,-0.02,-0.10
8000,-0.06,-0.13,0.06,0.01,0.00,-0.09
8010,-0.06,-0.06,0.00,0.00,-0.02,-0.13
8020,0.00,0.13,0.13,-0.01,0.00,-0.11
8030,0.06,0.00,-0.19,0.00,-0.02,-0.12
8040,-0.19,0.00,0.00,0.00,-0.02,-0.13
8050,0.06,-0.06,-0.13,-0.01,0.00,-0.12
8060,-0.25,-0.13,0.00,0.00,0.00,-0.10
8070,0.06,-0.13,0.06,0.00,-0.02,-0.14
8080,-0.06,0.06,0.06,0.00,-0.01,-0.15
8090,0.06,0.06,0.06,0.01,0.00,-0.12
8100,-0.06,0.00,0.13,-0.01,-0.02,-0.13
8110,-0.06,0.06,-0.06,-0.01,0.00,-0.09
8120,0.00,0.13,-0.06,0.00,0.00,-0.10
8130,0.00,0.13,-0.13,0.00,0.00,-0.09
8140,0.06,-0.06,0.25,-0.01,-0.01,-0.13
8150,-0.06,0.00,0.00,0.00,-0.01,-0.09
8160,0.00,0.00,0.00,0.01,0.00,-0.12
8170,0.00,0.00,0.00,0.00,-0.01,-0.11
8180,0.06,0.00,0.06,0.01,-0.01,-0.12
8190,-0.13,0.13,-0.13,0.00,-0.01,-0.08
8200,0.00,0.13,0.06,0.00,-0.01,-0.10
8210,0.06,0.19,0.00,0.00,-0.03,-0.11
8220,0.00,0.13,0.06,0.00,0.00,-0.15
8230,0.19,-0.06,-0.19,0.00,-0.02,-0.11
8240,-0.06,0.06,0.06,0.00,0.00,-0.11
8250,0.13,-0.06,0.06,0.00,0.00,-0.12
8260,0.00,0.19,0.06,0.00,0.00,-0.10
8270,0.00,0.06,0.00,0.01,0.00,-0.12
8280,-0.06,-0.06,0.00,0.00,-0.01,-0.12
8290,0.13,0.00,0.00,0.00,0.02,-0.08
8300,0.13,0.06,0.06,-0.01,0.00,-0.11
8310,-0.06,0.06,-0.06,0.00,-0.01,-0.11
8320,0.13,0.06,0.06,0.00,-0.03,-0.11
8330,0.00,-0.13,-0.06,-0.01,0.00,-0.10
8340,0.19,0.13,0.06,0.00,-0.03,-0.14
8350,0.06,-0.06,-0.06,0.00,-0.02,-0.12
8360,0.06,0.00,-0.06,0.00,0.00,-0.12
8370,0.00,-0.06,-0.06,0.01,-0.01,-0.12
8380,0.19,0.00,0.00,0.00,-0.02,-0.12
8390,-0.06,-0.06,0.00,-0.01,-0.01,-0.10
8400,0.06,0.13,0.13,0.00,0.00,-0.13
8410,0.00,0.13,0.00,0.00,-0.01,-0.11
8420,0.00,-0.13,0.06,0.01,0.00,-0.14
8430,0.13,0.00,-0.06,0.00,-0.01,-0.13
8440,-0.13,0.00,0.13,0.02,0.00,-0.12
8450,0.13,0.00,0.00,-0.01,-0.02,-0.10
8460,-0.06,-0.25,-0.13,-0.01,0.00,-0.08
8470,-0.06,0.06,0.00,-0.01,0.02,-0.15
8480,0.00,-0.13,-0.13,0.00,-0.01,-0.12
8490,-0.06,0.06,0.00,0.01,-0.03,-0.12
8500,0.00,0.00,0.00,0.01,0.00,-0.11
8510,0.00,0.13,0.00,0.00,0.00,-0.09
8520,-0.06,0.13,-0.06,0.01,-0.04,-0.16
8530,-0.13,-0.13,0.00,0.00,0.00,-0.10
8540,0.13,0.06,0.13,0.00,-0.01,-0.13
8550,0.00,0.06,-0.06,0.00,0.00,-0.07
8560,0.19,0.19,0.00,0.00,0.00,-0.12
8570,-0.19,0.06,-0.06,0.00,-0.01,-0.09
8580,0.13,-0.06,-0.06,0.00,0.01,-0.09
8590,0.13,-0.06,0.13,0.00,-0.03,-0.13
8600,0.00,-0.06,0.13,-0.01,0.00,-0.11
8610,0.13,0.19,0.06,-0.01,0.00,-0.12
8620,0.00,-0.06,0.06,0.00,-0.03,-0.11
8630,0.19,0.06,-0.06,0.01,-0.01,-0.10
8640,-0.06,-0.06,0.06,-0.01,-0.01,-0.09
8650,0.06,0.06,0.00,-0.01,0.00,-0.13
8660,-0.06,0.00,0.00,0.01,-0.02,-0.13
8670,0.06,-0.06,0.06,0.02,0.00,-0.12
8680,0.00,0.00,0.06,-0.01,-0.02,-0.13
8690,0.06,0.00,-0.06,0.00,-0.02,-0.14
8700,0.13,0.06,-0.06,0.00,-0.01,-0.14
8710,0.00,0.00,0.00,0.00,0.00,-0.09
8720,0.00,-0.19,0.06,-0.01,-0.01,-0.13
8730,0.00,-0.13,0.00,0.00,-0.01,-0.11
8740,0.06,-0.13,0.13,0.01,0.00,-0.08
8750,0.06,0.06,0.19,0.00,-0.01,-0.08
8760,0.19,0.06,0.00,0.00,-0.04,-0.12
8770,0.06,0.00,0.13,0.00,0.00,-0.11
8780,0.06,-0.06,0.00,0.00,0.00,-0.09
8790,0.13,0.13,0.00,0.00,-0.04,-0.10
8800,0.13,0.06,0.00,0.00,-0.01,-0.10
8810,0.19,-0.19,0.06,0.00,-0.02,-0.09
8820,-0.06,0.06,0.13,0.00,-0.02,-0.09
8830,0.13,0.13,0.00,0.00,-0.01,-0.13
8840,0.00,-0.13,0.06,-0.01,0.00,-0.09
8850,0.06,-0.06,-0.06,0.00,0.00,-0.09
8860,-0.06,0.00,0.00,0.00,-0.02,-0.11
8870,0.00,0.19,0.00,-0.01,0.00,-0.13
8880,-0.06,-0.06,0.13,-0.01,-0.01,-0.12
8890,0.19,0.06,-0.06,-0.01,0.00,-0.10
8900,0.13,0.19,0.00,0.00,-0.02,-0.13
8910,-0.06,-0.06,-0.06,0.00,0.00,-0.10
8920,0.06,0.06,-0.06,0.00,-0.02,-0.15
8930,0.06,0.13,-0.13,-0.01,-0.01,-0.10
8940,0.13,0.13,0.00,0.00,0.00,-0.10
8950,-0.06,0.00,0.00,0.00,-0.01,-0.12
8960,0.06,0.06,0.13,0.01,-0.02,-0.12
8970,0.13,-0.13,0.06,0.00,0.00,-0.16
8980,-0.06,0.06,0.00,0.00,0.00,-0.11
8990,0.06,0.00,0.06,0.00,-0.03,-0.10
9000,-0.06,-0.06,0.00,0.01,0.00,-0.08
9010,0.06,0.06,0.00,-0.01,-0.02,-0.12
9020,0.13,0.00,-0.06,-0.01,0.00,-0.11
9030,0.06,0.06,0.00,0.01,0.00,-0.11
9040,0.06,0.06,0.00,-0.01,0.00,-0.09
9050,0.06,0.00,-0.06,-0.01,0.01,-0.12
9060,0.00,0.00,0.00,-0.01,0.00,-0.10
9070,-0.06,-0.06,0.06,0.00,0.00,-0.13
9080,0.13,0.06,0.06,0.00,-0.02,-0.09
9090,0.00,-0.06,0.06,-0.01,-0.02,-0.11
9100,0.06,-0.06,-0.06,-0.01,-0.01,-0.11
9110,-0.13,0.06,0.13,-0.01,0.00,-0.12
9120,0.13,-0.06,-0.06,-0.01,0.00,-0.12
9130,-0.13,0.06,-0.13,0.00,0.00,-0.11
9140,0.13,-0.06,0.13,0.00,-0.02,-0.14
9150,-0.06,-0.13,-0.06,-0.01,0.00,-0.07
9160,0.06,0.06,0.06,0.00,0.00,-0.09
9170,-0.06,-0.13,0.00,0.00,-0.03,-0.15
9180,0.06,0.06,0.00,0.00,0.00,-0.13
9190,0.00,0.25,0.00,-0.01,0.00,-0.11
9200,0.00,0.00,0.00,0.00,0.01,-0.10
9210,0.13,0.19,-0.06,0.00,-0.04,-0.15
9220,0.00,-0.06,-0.06,0.00,-0.01,-0.10
9230,0.19,0.06,0.13,0.00,-0.03,-0.15
9240,-0.06,-0.06,0.13,-0.01,0.00,-0.09
9250,0.19,0.06,0.00,0.00,0.00,-0.11
9260,0.06,0.00,0.13,0.01,0.00,-0.08
9270,0.13,-0.13,0.00,0.02,-0.02,-0.17
9280,0.00,-0.06,0.00,0.00,-0.02,-0.14
9290,0.19,0.06,0.06,0.00,0.00,-0.11
9300,0.06,-0.06,0.25,-0.01,-0.01,-0.12
9310,0.00,-0.06,-0.06,0.00,-0.01,-0.11
9320,0.00,0.13,0.00,-0.01,-0.01,-0.14
9330,-0.06,0.00,0.00,0.00,0.00,-0.08
9340,0.19,0.00,0.00,0.01,0.00,-0.14
9350,0.00,0.00,0.06,0.00,0.00,-0.11
9360,0.06,-0.06,-0.06,0.00,-0.02,-0.15
9370,0.00,0.19,0.00,-0.01,-0.02,-0.13
9380,0.06,0.00,-0.06,0.00,-0.02,-0.13
9390,0.13,0.13,0.00,0.00,0.00,-0.10
9400,0.00,0.06,0.13,0.00,0.00,-0.09
9410,0.06,-0.06,-0.06,0.00,-0.02,-0.13
9420,0.00,0.00,0.06,-0.01,-0.01,-0.17
9430,0.00,0.06,-0.06,-0.01,0.00,-0.11
9440,0.06,0.00,-0.06,0.00,-0.02,-0.12
9450,0.13,-0.06,0.00,0.00,0.00,-0.10
9460,0.00,0.00,-0.06,0.00,-0.01,-0.10
9470,0.06,0.00,0.13,0.00,0.00,-0.10
9480,0.13,-0.13,0.06,-0.01,-0.02,-0.12
9490,-0.06,0.06,0.13,0.00,-0.02,-0.09
9500,0.13,-0.13,-0.06,-0.01,-0.02,-0.10
9510,0.13,-0.06,0.00,0.01,0.00,-0.14
9520,0.13,0.19,0.06,0.00,-0.01,-0.14
9530,-0.06,0.00,0.06,0.00,0.00,-0.10
9540,0.06,0.06,0.06,0.01,-0.01,-0.13
9550,0.06,0.00,0.00,0.00,-0.02,-0.10
9560,0.06,0.00,0.00,0.01,0.00,-0.12
9570,0.13,0.06,-0.13,0.00,-0.02,-0.14
9580,0.06,-0.06,0.06,0.01,-0.03,-0.11
9590,0.06,-0.06,0.06,0.00,-0.02,-0.13
9600,0.00,0.19,0.06,0.00,0.00,-0.11
9610,0.06,0.19,0.00,0.00,-0.02,-0.12
9620,-0.06,0.06,0.00,-0.02,-0.01,-0.11
9630,0.06,0.13,0.06,-0.02,0.00,-0.13
9640,0.00,-0.06,-0.06,0.00,0.00,-0.09
9650,0.00,0.00,0.06,-0.01,-0.01,-0.10
9660,0.06,0.06,0.00,0.00,0.00,-0.11
9670,0.06,-0.06,0.06,-0.02,0.00,-0.14
9680,0.06,0.13,0.00,0.00,-0.02,-0.16
9690,0.06,0.13,0.00,0.01,-0.01,-0.10
9700,0.13,0.06,-0.06,0.00,-0.02,-0.10
9710,-0.06,-0.06,0.00,0.00,0.00,-0.07
9720,0.13,0.06,0.00,0.01,-0.02,-0.14
9730,0.00,0.06,0.06,0.00,0.00,-0.11
9740,0.00,0.00,0.13,0.00,0.00,-0.09
9750,-0.13,-0.13,0.00,0.01,-0.04,-0.08
9760,-0.06,0.06,0.06,0.02,0.00,-0.10
9770,0.00,0.06,0.06,0.00,0.00,-0.11
9780,0.00,0.00,0.13,0.00,0.00,-0.08
9790,-0.06,-0.06,-0.06,0.00,-0.04,-0.14
9800,-0.25,-0.06,0.13,0.00,0.00,-0.10
9810,0.00,-0.06,0.00,0.00,-0.02,-0.12
9820,0.00,0.06,0.00,-0.01,-0.01,-0.13
9830,0.25,0.06,0.00,-0.01,-0.01,-0.14
9840,0.00,-0.06,-0.06,0.00,0.00,-0.11
9850,0.06,0.00,0.06,0.00,-0.01,-0.12
9860,-0.19,0.06,0.06,0.02,-0.02,-0.14
9870,0.06,0.06,-0.06,0.00,0.00,-0.15
9880,-0.13,0.06,-0.06,0.00,0.00,-0.13
9890,0.00,0.00,0.00,0.00,0.00,-0.13
9900,-0.06,-0.06,0.13,0.01,-0.03,-0.12
9910,0.00,-0.06,0.13,0.00,-0.01,-0.06
9920,0.06,-0.06,-0.06,0.00,-0.02,-0.14
9930,-0.06,-0.06,0.06,0.00,0.00,-0.10
9940,0.00,-0.06,-0.06,0.00,0.00,-0.14
9950,-0.19,0.00,0.00,-0.01,0.00,-0.08
9960,-0.13,-0.06,0.00,-0.01,-0.05,-0.15
9970,0.00,-0.19,0.06,0.01,-0.01,-0.15
9980,0.06,0.00,-0.06,-0.02,0.01,-0.08
9990,0.06,0.06,0.19,0.00,-0.01,-0.12
10000,0.00,0.13,0.00,0.01,-0.01,-0.12
10010,0.00,0.00,-0.13,0.03,-0.02,-0.16
10020,-0.19,-0.06,0.06,0.00,0.00,-0.10
10030,-0.06,0.06,0.06,0.01,-0.03,-0.13
10040,-0.13,0.13,0.06,0.00,0.00,-0.09
10050,0.13,0.00,-0.06,0.00,0.00,-0.09
10060,-0.13,-0.13,-0.06,0.00,0.00,-0.09
10070,0.19,0.13,0.00,0.00,-0.01,-0.14
10080,-0.06,-0.06,-0.13,0.00,0.01,-0.11
10090,0.13,0.00,0.00,-0.01,0.01,-0.10
10100,0.06,-0.13,0.00,-0.01,-0.03,-0.11
10110,-0.06,-0.06,0.06,-0.02,-0.02,-0.09
10120,-0.06,-0.19,-0.06,0.00,-0.06,-0.14
10130,0.00,-0.06,0.00,-0.01,0.01,-0.11
10140,-0.06,0.06,0.06,0.00,0.00,-0.10
