timestamp,gyrox,gyroy,gyroz,accx,accy,accz
10,6.19,25.5,27.5,0,0,0
20,-12.13,8.56,16.37,0,0,0
30,-29.87,-4.75,5.12,0,0,0
40,-38.38,-9.81,-3,6.62,4.95,-18.96
50,-32.56,-12.19,-4.5,7.72,5.44,-18.81
60,-14.56,-9.69,-6.69,7.57,5.03,-19.53
70,3.87,-5,-17.81,8.3,4.95,-19.7
80,-17.37,-110.69,162.75,-3.36,-0.21,1.1
90,-27.62,-132.25,156.31,-2.49,-1.62,1.22
100,-27.5,-149.5,149.81,-1.96,-2.81,1.01
110,-19,-163.37,136.94,-1.47,-3.73,0.64
120,-3.12,-173.19,115.44,-1.56,-3.87,0.09
130,19,-176.81,98,-2.45,-3.34,-1.21
140,44.5,-175.19,90.19,-2.41,-2.14,-1.67
150,70.31,-168.56,98.56,-2.31,-1.82,-2.23
160,84,-167.19,120.69,-2.68,-2.23,-2.59
170,75.56,-177.37,145.81,-0.63,-2.94,-2.73
180,47.69,-192.12,169.81,-0.14,-4.23,-3.31
190,7.06,-205.25,187.94,1.07,-7.49,-3.38
200,-31,-210.94,186.5,2.19,-9.23,-2.67
210,-51.75,-220.06,158.94,2.23,-9.23,-2.74
220,-56.94,-228.31,121.94,2.7,-9.58,-3.31
230,-63.25,-231.94,75.75,3.89,-11.02,-5.4
240,-84.69,-238.25,19,3.4,-10.72,-5.88
250,-92,-237.94,-35,2.66,-9.95,-6.01
260,-63.31,-226.87,-73.62,1.83,-9.05,-7
270,-12.25,-212.25,-95,2.06,-9.01,-7.91
280,39.94,-189.94,-112.94,2.39,-8.91,-8.77
290,79.06,-159.5,-134.56,2.64,-8.49,-9.45
300,99.87,-127.31,-162.31,1.82,-6.61,-11.16
310,100.19,-93.44,-181.44,1.98,-5.78,-11.88
320,81.75,-54.56,-188,1.86,-5,-11.9
330,61.88,-14.44,-191.62,1.45,-3.55,-10.21
340,52.31,20.31,-198.94,0.39,-1.64,-9.96
350,46.69,50.38,-199.19,0.43,-1.22,-9.07
360,20,61.75,-204.56,0.68,0.04,-8.99
370,-31.44,58.25,-209.94,-1.87,2.73,-9.83
380,-89.94,62.25,-210.25,-2.49,4.51,-9.16
390,-121.62,73.81,-203.06,-2.79,6.35,-8.21
400,-109.81,88.87,-182.25,-4.7,8.73,-7.58
410,-63.63,118.56,-154,-4.82,9.43,-7.33
420,-12.56,155.62,-119.56,-4.4,9.69,-7.35
430,5.75,180,-80.69,-3.72,7.44,-7.8
440,-27.69,193.12,-49.88,-3.11,6.15,-7.09
450,-91.5,196.69,-31.31,-3.06,5.44,-5.6
460,-139.06,200.75,-20.69,-3.4,5.18,-3.78
470,-148.94,206.69,-9.94,-2.73,3.96,-0.71
480,-129.87,207.44,-6.69,-2.61,3.68,0.02
490,-97.44,202.69,-15.5,-2.89,4.25,0.62
500,-50.44,197.19,-25.87,-3.64,6.6,0.43
510,5.75,197.56,-27.69,-4.25,7.62,-0.17
520,52.06,204.44,-20.56,-4.97,8.33,-0.73
530,71.81,212.94,-1.87,-5.33,8.59,-1.15
540,66.62,219.81,22.87,-5.27,6.71,-0.19
550,57,219.37,39.06,-5.67,6.27,-0.11
560,46.19,215.44,44.44,-6.02,6.35,0.48
570,36.25,208.31,47.56,-7.27,7.25,1.62
580,33.5,192.25,53.19,-8.38,8.44,1.68
590,36.88,170.56,73.44,-8.85,8.82,0.79
600,27.37,153.44,110.12,-8.42,6.26,-2.33
610,-20.87,144.12,144.37,-8.41,5.06,-2.68
620,-95.12,142.25,167.19,-8.75,4.46,-1.17
630,-141.94,147.69,185.69,-9.31,4.25,1.27
640,-129,153.56,208.06,-8.49,1.72,3.16
650,-82.62,162.37,225.87,-7.89,0.49,3.45
660,-32.63,174,222.87,-7.95,0.35,4.08
670,12.19,178.75,214.75,-8.2,0.9,4.42
680,38,170.69,212.5,-8.75,1.11,3.69
690,28.44,150.06,219.19,-8.73,0.75,2.62
700,-18.75,127.19,235.44,-8.89,0.09,1.39
710,-85.44,111.5,254.75,-7.1,-3.6,1.38
720,-143.31,99,265.06,-6.11,-4.65,1.93
730,-170.06,93.5,263.06,-5.15,-5.75,2.57
740,-166.25,90.5,250.69,-4.04,-6.66,3.82
750,-148.5,86.69,231.5,-3.41,-6.74,4.13
760,-129.81,77.06,215.56,-2.97,-6.94,4.13
770,-120.19,61.75,205.12,-2.16,-7.42,3.81
780,-125.31,40.94,196.12,-0.4,-9.69,2.42
790,-142.5,17.06,179.06,-0.42,-10.26,1.7
800,-155.5,-2.56,153.31,0.79,-9.69,1.29
810,-152.12,-8.56,131.94,1.3,-10.56,0.23
820,-135.75,0.56,113.19,1.55,-10.82,0.35
830,-112.62,15.13,83.5,1.7,-10.72,1.02
840,-80.75,25.75,51.81,1.43,-10.24,2.24
850,-39.94,26.81,24.25,1.26,-10.16,2.11
860,-4,20.44,-0.5,1.31,-10.15,1.45
870,10.75,10.25,-24.56,1.14,-10.03,0.45
880,1.81,2.69,-48.63,0.72,-9.87,-0.74
890,-17,-2.31,-71.5,0.28,-9.69,-1.17
900,-27.06,3.56,-92.25,0.01,-9.76,-1.3
910,-28.25,16.94,-113.62,-0.63,-9.3,-0.04
920,-21.87,29.87,-141.31,-1.54,-7.96,1.38
930,-1.5,40.81,-169.06,-2.65,-6.42,2.8
940,32.19,38.69,-181.25,-3.49,-5.39,3.24
950,55.5,25.25,-180.37,-3.85,-4.93,2.5
960,51.13,8.13,-180.56,-3.88,-4.98,2.1
970,24.06,-7.87,-188.94,-3.58,-4.82,2.11
980,-7.44,-18.81,-206.37,-4.81,-3.07,3.09
990,-25.94,-27.25,-222.62,-5.26,-2.23,3.36
1000,-28.12,-35.38,-228.31,-5.82,-1.55,3.44
1010,-16.37,-39.5,-221.25,-6.05,-1.16,3.52
1020,1.69,-41,-208,-5.92,-1.06,3.29
1030,13.81,-45.69,-199.87,-5.92,-0.87,3.2
1040,17.19,-50.88,-200.75,-5.96,-0.35,3.11
1050,15.19,-54.69,-201.69,-5.99,1.14,3.58
1060,17.25,-61.88,-205.5,-6.23,2.1,3.78
1070,31,-68.69,-204.06,-6.39,3.09,3.91
1080,56.25,-77.56,-194.87,-6.46,4.94,2.65
1090,78.69,-84.62,-181.31,-6.49,5.77,1.86
1100,89.37,-94.56,-165,-6.27,6.62,0.85
1110,85.5,-103.31,-146.94,-6.25,7.58,-0.04
1120,75.56,-103.5,-126.81,-6.38,9.34,-1.22
1130,65.94,-98.56,-97.81,-5.91,9.64,-1.68
1140,55.44,-92.44,-70.69,-5.51,10.22,-1.99
1150,44.81,-86.87,-49.94,-5.53,11.66,-2.69
1160,35.31,-78.37,-24.75,-5.44,11.96,-2.63
1170,25.19,-66.56,5.56,-5.29,11.85,-2.27
1180,14.88,-57.75,37.13,-4.97,11.33,-1.64
1190,6.31,-54.75,62.88,-5.08,10.5,-0.59
1200,3,-54.06,85.81,-5.27,10.02,-0.19
1210,6.25,-58.31,111.25,-4.97,8.79,-0.3
1220,5.44,-64.56,133.81,-4.42,6.02,-1.07
1230,-6.75,-70.19,149.31,-4.22,4.99,-1.07
1240,-21.31,-71.5,159.5,-3.88,4.02,-0.66
1250,-28.06,-71.69,167.69,-3.56,3.13,-0.14
1260,-25.56,-74.69,175.62,-3.16,0.81,0.41
1270,-17.62,-82,181.81,-2.8,-0.72,0.1
1280,-14.5,-90.75,183.25,-2.4,-2.29,-0.24
1290,-18.25,-99.44,172.37,-2.07,-4.27,-0.28
1300,-22.87,-112.5,153.31,-1.92,-4.52,-0.44
1310,-22.44,-130.81,132,-1.92,-4.42,-1.4
1320,-22,-145,115.19,-1.21,-4.27,-3.66
1330,-24.44,-146.37,105.37,-0.88,-4.44,-4.17
1340,-25.56,-133,97.25,-0.58,-4.56,-3.79
1350,-20.12,-113.94,88.5,-0.57,-4.66,-3.1
1360,-9.5,-101.37,80.37,-0.53,-5.2,-2.17
1370,-4.87,-98.5,73.75,-0.35,-5.68,-1.96
1380,-9.69,-106.69,69.12,-0.1,-6.4,-2.42
1390,-22.94,-117.94,64.31,1.03,-8.06,-3.57
1400,-40.44,-124.25,55.56,1.67,-8.65,-3.57
1410,-47.94,-121.81,37.88,2.3,-8.97,-3.44
1420,-40.06,-110.12,17.44,2.77,-9.33,-3.06
1430,-20.06,-95.62,-4.31,2.74,-9.59,-1.45
1440,8.44,-87.75,-27.31,2.75,-9.61,-0.98
1450,38.81,-91.75,-49.81,2.48,-9.52,-0.94
1460,65.81,-100.75,-71.25,2.34,-8.82,-1.34
1470,88.31,-110.37,-90.62,2.06,-8.13,-1.66
1480,112,-116.5,-105.25,2.09,-7.72,-2.01
1490,137.37,-116.44,-111.56,2.95,-7.76,-4.37
1500,137.37,-116.44,-111.56,2.89,-7.56,-6.01
1510,141.5,-109.31,-131.37,3.06,-7.13,-6.73
1520,112.81,-90.56,-146.37,3.06,-6.46,-6.38
1530,85.5,-70,-161.06,1.89,-5.07,-3.99
1540,72.81,-57.56,-169.94,1.57,-4.45,-3.61
1550,71.19,-58.81,-174,1.51,-4.07,-4.87
1560,57.56,-64.19,-175.12,1.44,-3.52,-7.88
1570,23.69,-59,-178.94,1.19,-2.77,-8.55
1580,-13.75,-41.38,-187.06,0.65,-1.72,-8.62
1590,-39.44,-16.31,-196,0.4,-0.42,-8.19
1600,-39.44,-16.31,-196,-0.63,1.55,-8.26
1610,-42.25,10.13,-199.69,-0.87,2.57,-8.97
1620,-33.88,59.94,-181.56,-0.17,2.72,-9.05
1630,-57.75,72.62,-184.56,-2,6.36,-8.72
1640,-84.69,74.62,-196,-3.16,8.79,-8.55
1650,-84.69,74.62,-196,-4.18,10.87,-8.93
1660,-96.31,76,-192.87,-4.42,11.78,-9.53
1670,-88.81,115.81,-113.75,-3.73,10.41,-10.11
1680,-103.19,145.44,-67.75,-3.14,8.91,-9.17
1690,-128.94,175.06,-39.13,-3.19,7.88,-7.35
1700,-128.94,175.06,-39.13,-3.53,7.82,-3.09
1710,-142.75,199.19,-27.75,-4.1,7.94,-1.58
1720,-87.62,227.44,-16.75,-4.29,8.25,-0.48
1730,-44.5,230.75,-6.87,-4.62,8.39,0.2
1740,-15.81,223.69,9.75,-4.44,7.67,0.02
1750,-15.81,223.69,9.75,-4.44,7.67,0.02
1760,-15.13,207.25,27.81,-5.31,6.49,-0.79
1770,-78.06,177.19,52.81,-5.43,6.14,1.11
1780,-89.94,173,66.31,-5.81,5.91,1.69
1790,-65.31,167.37,76.5,-6.5,5.99,1.25
1800,-65.31,167.37,76.5,-6.5,5.99,1.25
1810,-27.62,161.44,87.12,-6.68,6.21,0
1820,8.69,164.5,116.69,-7.62,5.73,-0.64
1830,-10.44,164.87,137.5,-7.52,4.82,-0.85
1840,-52.88,160.12,157.81,-7,3.01,-0.31
1850,-52.88,160.12,157.81,-7,3.01,-0.31
1860,-100.69,157.19,169.31,-7.94,3.14,2.74
1870,-104.44,167.06,179.94,-8.14,3.32,4.84
1880,-59.44,162.25,195.87,-8.3,2.57,4.27
1890,-19.69,150.81,212.56,-7.96,1.85,3.26
1900,-19.69,150.81,212.56,-7.96,1.85,3.26
1910,-10.31,138.37,224.19,-7.83,1.03,2.19
1920,-66.37,112.87,230.12,-6.82,-0.8,2.25
1930,-90.5,100.87,231.25,-6.63,-1.68,2.09
1940,-106,92.37,232.44,-5.75,-3.03,2.78
1950,-106,92.37,232.44,-5.75,-3.03,2.78
1960,-116.56,88.37,232.19,-5.51,-3.47,3.29
1970,-108.56,54.81,227.19,-4.24,-4.91,2.96
1980,-93.44,37.44,218.44,-2.81,-6.4,1.78
1990,-78.44,29.75,205.5,-2.14,-7.01,1.19
2000,-78.44,29.75,205.5,-2.14,-7.01,1.19
2010,-69.37,29.69,188.87,-1.6,-7.29,0.91
2020,-70,30.19,169.62,-0.15,-8.36,0.68
2030,-78.25,26,150.69,0,-8.07,0.81
2040,-86.25,21.25,127.37,0.46,-7.77,0.83
2050,-84.37,14.5,101.62,0.46,-7.77,0.83
2060,-68.69,10.13,81.81,-0.55,-7.82,0.49
2070,-48.5,9,65.06,0.9,-7.4,0.16
2080,-35.94,7.69,51,1.26,-8.34,-0.98
2090,-31.06,3.06,39.81,1.13,-8.41,-1.08
2100,-35.13,2.25,22.12,1.13,-8.41,-1.08
2110,-39.63,8.63,0.06,1.36,-7.94,-0.56
2120,-35.81,16.81,-24.31,-0.35,-6.1,0.28
2130,-18.19,19.5,-45.69,-0.71,-5.97,0.19
2140,8.69,22.44,-57.31,-0.76,-6.16,-0.11
2150,37.5,26.56,-62.06,-0.76,-6.16,-0.11
2160,53.88,29.69,-66.75,-0.64,-6.94,-0.97
2170,45.5,32.94,-76.06,-1.09,-6.87,-0.01
2180,20.81,32.94,-92.31,-1.88,-6.3,1.38
2190,1.06,32.75,-110.06,-2.39,-5.86,1.59
2200,-5.75,31,-127.81,-2.39,-5.86,1.59
2210,-2.94,27.25,-144.75,-2.65,-5.34,1.64
2220,2.94,25.12,-160.75,-5.11,-1.68,3.28
2230,12.25,23.75,-175.56,-5.2,-1.32,3.27
2240,28.69,17.81,-176.12,-4.94,-1.69,2.57
2250,40.63,2.12,-161.75,-4.94,-1.69,2.57
2260,36.06,-15.19,-148.56,-4.24,-2.92,0.83
2270,15.75,-25.37,-143.31,-3.91,-3.34,0.63
2280,-6.25,-29.12,-149.06,-4.54,-1.38,2.6
2290,-13.69,-23.75,-162.06,-5.14,-0.14,3.33
2300,2.25,-14.13,-178.44,-5.14,-0.14,3.33
2310,35.44,-10.94,-188.06,-5.68,0.8,3.37
2320,64.75,-19.31,-182.44,-5.35,0.66,1.08
2330,69.62,-34.81,-164.69,-4.93,0.24,1.14
2340,44.38,-50.13,-147.19,-4.68,0.48,1.9
2350,5.25,-62.13,-140.94,-4.68,0.48,1.9
2360,-18.87,-73.62,-145.56,-4.62,2.47,2.41
2370,-16.25,-85.19,-150.94,-4.39,4.1,0.9
2380,5.19,-94.12,-148.62,-4.16,4.91,0.09
2390,34.38,-94.5,-140.81,-4.23,6.42,-1.1
2400,60.88,-87.06,-128.75,-4.23,6.42,-1.1
2410,75.44,-78.12,-112.12,-4.1,6.73,-1.62
2420,73.12,-71.56,-93.06,-3.76,8.29,-0.85
2430,56.81,-65,-78.81,-3.9,9.3,-0.46
2440,40.5,-65.87,-71.25,-3.96,10.33,-0.54
2450,32.13,-72.06,-61.81,-3.96,10.33,-0.54
2460,30.37,-82.81,-43.13,-3.82,10.84,-2.31
2470,28.75,-89.69,-12.56,-2.98,8.95,-3.76
2480,22.25,-85.62,19.25,-2.8,8.14,-2.92
2490,7,-69.44,42.88,-2.64,6.65,-1.01
2500,-6.31,-53.06,58.69,-2.64,6.65,-1.01
2510,-9.44,-46.94,71.44,-2.13,5.91,-0.62
2520,-9.5,-48.31,79.69,-1.71,4.63,-1.14
2530,-15.06,-55.44,84.62,-1.71,4.63,-1.14
2540,-25.75,-62.56,88.12,-1.97,4.45,-0.77
2550,-33.25,-64.31,91.12,-2.36,4.43,-0.24
2560,-28.94,-65.81,94.5,-2.67,4.14,0.09
2570,-16.12,-69.5,98.62,-3.39,3.64,-0.38
2580,-6.06,-74.19,103.06,-3.53,3.38,-0.72
2590,-5.94,-79.19,110.94,-3.41,2.98,-1.23
2600,-17.31,-84.62,122.5,-2.54,1.44,-2.03
2610,-35.81,-90.06,135.75,-2.11,0.3,-2.71
2620,-51.94,-93.06,145.94,-1.86,-0.7,-3.32
2630,-60.75,-83.81,147,-1.72,-1.41,-3.25
2640,-59.88,-64,139,-1.93,-1.58,-0.98
2650,-47.25,-44.88,126.31,-2.34,-1.07,0.41
2660,-25.69,-36.25,117.87,-2.69,-0.73,1.21
2670,-7.37,-43,117.37,-2.41,-1.19,0.57
2680,-7.06,-59.31,122.5,-2,-1.88,-0.21
2690,-28.94,-77.19,129.31,-1.39,-2.99,-0.91
2700,-61.69,-91.81,133.87,0.16,-5.47,-1.65
2710,-88.94,-99,130.06,0.77,-6.19,-1.51
2720,-97.37,-96.31,114.31,0.97,-6.18,-0.98
2730,-80.06,-86.56,89.5,0.78,-5.64,-0.35
2740,-39.69,-76.06,66,0.22,-4.47,-0.14
2750,6.44,-68.19,51.25,-0.1,-4.2,-0.64
2760,34,-66.19,43.81,-0.17,-4.19,-1.41
2770,27.37,-71.62,41.44,-0.11,-4.65,-2.48
2780,-3.81,-79.5,39.69,0.27,-5.1,-2.47
2790,-39.13,-84.69,37.06,0.65,-5.74,-2.37
2800,-63.81,-87.56,31.44,0.93,-6.29,-2.15
2810,-68.06,-84.75,20,1.18,-6.87,-1.62
2820,-50.69,-75.19,5.56,1.2,-7.02,-1.39
2830,-21.69,-64.37,-11.06,1.1,-7.02,-1.19
2840,3.62,-57,-28.37,0.79,-6.51,-1.26
2850,15.44,-56.44,-43.63,0.87,-6.22,-1.3
2860,12.31,-59.06,-55.56,0.96,-5.8,-0.98
2870,4.12,-61.5,-64.5,1.01,-5.38,-0.69
2880,0.44,-66.69,-68.25,1.52,-5.74,-1.37
2890,0.06,-70.56,-70.44,1.99,-6.08,-1.53
2900,-0.94,-70.69,-77.94,2.14,-5.99,-1.4
2910,2.87,-69.31,-89.69,2.07,-5.59,-1.56
2920,13.81,-69.62,-100.19,2.11,-5.43,-2.03
2930,24.31,-71.87,-111.81,1.89,-4.95,-2.69
2940,29.31,-74,-123.25,1.32,-4.05,-4.39
2950,28.12,-74.81,-130.12,1.1,-3.61,-5.17
2960,23.37,-71.06,-135.19,0.9,-3.08,-5.55
2970,19.37,-58.31,-136.31,0.91,-2.99,-5.66
2980,20.06,-40.25,-133.5,0.65,-2.82,-5.18
2990,28.25,-20,-134.87,0.44,-2.83,-4.7
3000,39.25,-1.19,-137.06,0.27,-2.88,-4.16
3010,44.25,11.13,-141.94,-0.44,-2.27,-3.3
3020,40.19,15.75,-148.44,-0.56,-1.98,-3.24
3030,28.19,14.81,-151,-0.41,-1.92,-3.44
3040,14.13,13.31,-153.62,-0.3,-1.42,-3.6
3050,10.13,18.56,-162.75,-0.51,1.11,-2.98
3060,24,29.31,-173.44,-1.05,2.96,-2.84
3070,50.31,40,-181.94,-1.44,4.98,-2.88
3080,72.94,46.75,-179.25,-1.7,7.42,-3.74
3090,74.37,45.69,-162.94,-1.19,7.89,-3.93
3100,61.19,38.06,-145.19,-0.81,8.18,-4.79
3110,54.5,32.63,-127.94,-0.08,8.23,-5.85
3120,59.81,41.38,-117.62,-0.84,10.12,-6.98
3130,69.37,65.62,-112.5,-0.93,11.37,-7.34
3140,69.75,88.87,-90.37,-1.69,11.25,-7.23
3150,40,96.06,-63.5,-1.73,10.86,-7.7
3160,-10.44,95.94,-34.88,-1.59,9.85,-7.8
3170,-52.31,99.87,-2.5,-0.89,8.02,-7.98
3180,-75.94,115.06,24.69,-0.27,5,-6.4
3190,-85.37,131.5,36.94,-0.42,4.34,-5.61
3200,-81.62,147.75,34.38,-1.16,4.48,-4.16
3210,-61.56,166.31,24.69,-1.92,5.19,-2.63
3220,-26,177.75,22.06,-2.34,5.63,-1.94
3230,3.37,178.25,26,-2.64,6,-1.84
3240,10.31,173.37,30.25,-2.83,6.23,-1.59
3250,2.31,165.06,37.44,-3.47,7.64,-0.92
3260,-7.75,158.12,46.19,-3.76,6.96,-0.68
3270,-8.56,152.06,67.06,-3.73,5.78,-1.45
3280,-9.69,140.75,83.87,-4.16,4.8,-2.98
3290,-31.19,136.12,92.31,-4.43,4.39,-2.81
3300,-62.88,141.5,97.19,-5.19,4.62,-1.16
3310,-79.75,154,103.25,-5.82,4.84,0.57
3320,-71.25,161.19,113.56,-6.35,4.83,1.98
3330,-52.69,156.56,127.5,-6.75,4.69,1.84
3340,-42.31,147.19,143.12,-6.75,4.06,1.45
3350,-48.38,134.69,162.06,-6.62,3.15,0.93
3360,-70.25,124.31,176.62,-6.52,1.4,1.2
3370,-96.19,117.56,186.56,-6.55,0.82,1.69
3380,-113.81,114.94,192.87,-6.59,0.37,2.48
3390,-112.44,116.81,196,-6.49,-0.39,4.37
3400,-93.81,118.94,199.12,-7.09,-0.93,4.78
3410,-68.44,112.06,200.75,-6.14,-1.34,4.84
3420,-51.06,94.75,199.75,-5.52,-2.52,3.58
3430,-53.44,70.19,194.62,-5.55,-2.65,3.1
3440,-72,46.19,184.44,-5.22,-2.4,2.78
3450,-88.94,26.25,174.75,-4.94,-2.62,2.36
3460,-94.81,15.06,171.5,-4.23,-3.25,2.25
3470,-87.12,15.75,168.56,-3.98,-3.78,2.2
3480,-70.44,19,166.62,-3.43,-4.51,1.92
3490,-57.75,17.62,162,-2.63,-5.81,1.08
3500,-55.19,12.31,148.87,-2.27,-5.87,0.8
3510,-59,8.63,130.75,-1.74,-5.9,0.41
3520,-67.12,4.75,117.06,-1.27,-6.11,-0.09
3530,-80.06,2.12,106.69,-0.45,-6.6,-0.33
3540,-92.44,1.75,94.62,-0.05,-6.82,-0.04
3550,-92.69,3,82.62,0.2,-7.13,0.09
3560,-53.5,8.25,56.31,0.65,-7.49,0.06
3570,-53.5,8.25,56.31,1.26,-7.77,-0.39
3580,-30.37,9.94,41.75,1.31,-8.06,-1.18
3590,-18.62,11.06,25.25,1.57,-8.35,-1.85
3600,-21.44,15.19,7.62,1.61,-8.71,-2.18
3610,-41,31.69,-33.31,1.17,-8.54,-1.56
3620,-41,31.69,-33.31,1.14,-8.19,-0.85
3630,-35.25,38.25,-53.63,0.16,-6.73,-0.07
3640,-23.94,38.81,-74.44,-0.43,-5.59,-0.08
3650,-11.81,33.44,-88.81,-0.92,-5.01,-0.67
3660,1.44,23.56,-91.62,-0.69,-5.66,-3.01
3670,1.44,23.56,-91.62,-0.88,-6.01,-3.5
3680,-25.37,43.75,-113.94,-1.24,-6.03,-3.15
3690,-25.12,56.38,-130.75,-1.56,-5.81,-2.44
3700,-10.75,67.87,-147,-2.86,-4.6,-1.22
3710,4.25,77.5,-161.62,-3.5,-4.06,-0.8
3720,4.25,77.5,-161.62,-4.41,-2.99,0.13
3730,11,80.5,-174.25,-5.84,-1.17,1.26
3740,-0.56,43.31,-160.44,-5.78,-1.78,0.55
3750,-27.37,27.62,-149.81,-5.46,-3.1,-0.43
3760,-57.5,27.5,-153.31,-4.98,-4.52,-0.73
3770,-67.75,38,-172.06,-5.09,-4.56,2.02
3780,-41.75,47.44,-193.56,-5.54,-3.47,3.66
3790,3.06,45.38,-207.75,-5.95,-2.1,4.4
3800,37.63,33.06,-209.06,-6.94,0.54,3.99
3810,45.13,12.06,-197.69,-6.83,0.88,3.31
3820,25.75,-10.5,-182.31,-6.4,0.66,2.53
3830,-4.81,-23.5,-174.12,-6.05,0.14,2.02
3840,-22.56,-27.81,-176.87,-5.1,0,3.22
3850,-10.56,-28.75,-187.62,-5.12,0.84,4.17
3860,28.94,-29.12,-195.94,-5.33,2.23,4.65
3870,70.31,-32.56,-192.44,-5.85,5.41,3.88
3880,88.31,-44.81,-176.25,-5.78,6.42,2.94
3890,72.81,-64.5,-150.94,-5.45,6.83,1.86
3900,35.69,-79.12,-125.69,-4.32,6.39,0.61
3910,3.56,-86.5,-108.37,-3.79,6.03,0.76
3920,-0.31,-86.06,-101.5,-3.41,6.11,0.89
3930,25.5,-77.56,-101.69,-3.5,6.89,1
3940,65.87,-66.75,-98.12,-4.12,9.99,1.29
3950,95.94,-64.44,-80,-3.97,11.29,0.96
3960,95.25,-73.87,-48.5,-3.69,11.82,0.13
3970,63.25,-85.37,-14.88,-3.03,10.84,-1.87
3980,19.31,-88.75,12.06,-2.81,9.92,-1.97
3990,-10.19,-83,30.12,-2.7,9.18,-0.96
4000,-10.25,-78.5,43,-2.83,8.54,0.19
4010,12.56,-77.62,51.5,-3.12,7.92,1.14
4020,39,-77.56,60.81,-3.46,8.01,0.66
4030,46.44,-78.44,75.75,-3.56,8,-0.02
4040,30.5,-80.06,93.69,-3.13,6.53,-0.36
4050,4.69,-85.94,109,-3.01,5.4,0.04
4060,-17.87,-96.75,118.81,-2.79,4.27,0.41
4070,-28.12,-107.5,124.62,-2.88,3.29,0.34
4080,-22.44,-110.31,127.37,-2.62,1.45,-0.29
4090,-4.06,-103.81,124.94,-2.59,1.36,-0.25
4100,20.5,-94.81,125.5,-2.58,1.66,0.14
4110,40.69,-93.37,133.12,-2.12,0.98,-0.1
4120,45.88,-97.75,138.37,-1.85,0.38,-0.86
4130,35.88,-99.19,137.62,-1.9,0.17,-1.38
4140,20.5,-98.06,139.06,-2.12,-0.49,-1.39
4150,7.12,-100.19,143.37,-2.17,-1.05,-1.55
4160,7.12,-100.19,143.37,-2.15,-1.77,-1.62
4170,-9.25,-99.94,148.94,-1.93,-2.64,-1.51
4180,-12.69,-101.87,146.5,-1.37,-4.54,-1.88
4190,-17.06,-105,140.12,-1.11,-5.28,-2.17
4200,-24.62,-109.62,130.75,-0.74,-5.99,-2.49
4210,-31.19,-110.62,118.5,-0.13,-7.12,-3.49
4220,-32.63,-102.69,102.94,-0.14,-7.48,-3.49
4230,-25.75,-88.37,84.5,-0.09,-7.44,-2.96
4240,-8.13,-75.12,69.44,-0.35,-7.23,-1.96
4250,12.56,-69.75,61.75,-0.41,-7.43,-1.07
4260,12.56,-69.75,61.75,0.14,-8.22,-1.4
4270,19.19,-71.25,56.81,0.71,-9.04,-1.87
4280,-19.81,-77.5,26.44,1.02,-9.78,-1.58
4290,-29.44,-72.12,0.06,0.68,-9.28,-0.33
4300,-15.25,-69.25,-20.5,0.32,-8.65,0.62
4310,-15.25,-69.25,-20.5,0.19,-8.34,0.81
4320,7.56,-71.56,-33,0.23,-8.53,-0.03
4330,16.12,-77.94,-58.56,0.3,-8.43,-0.08
4340,9.56,-80.62,-73.06,0.46,-8.24,0.16
4350,7.69,-85.56,-88.56,0.99,-7.85,0.97
4360,7.69,-85.56,-88.56,0.97,-7.38,0.82
4370,15.81,-94.62,-106.19,0.89,-6.84,0.05
4380,41.69,-113.44,-134.81,0.38,-5.67,-2.45
4390,44.69,-121.19,-143.12,0.51,-5.15,-4.14
4400,34.81,-123.62,-148.19,0.72,-4.65,-5.84
4410,34.81,-123.62,-148.19,0.72,-4.65,-5.84
4420,18.87,-110.12,-150.44,0.97,-4.4,-7.18
4430,7.06,-54.19,-165.31,1.85,-3.97,-7.49
4440,23.75,-28.25,-177.69,1.69,-3.18,-6.89
4450,45.69,-12.06,-187.31,0.71,-1.23,-7.38
4460,45.69,-12.06,-187.31,0.71,-1.23,-7.38
4470,52.31,-2.94,-189.37,0.33,-0.56,-9.09
4480,0.31,12.25,-190.31,0.35,-0.21,-9.69
4490,-17.81,33.19,-198.56,-0.47,2.16,-7.46
4500,7.81,53.88,-206.44,-0.98,4,-5.9
4510,7.81,53.88,-206.44,-0.98,4,-5.9
4520,70.06,69.06,-203.62,-1.52,5.7,-5.46
4530,139.19,89.69,-163.31,-1.62,7.12,-9.9
4540,91.81,99.19,-143.56,-1.52,7.27,-10.82
4550,14.81,108.19,-128.62,-1.89,7.55,-10.52
4560,14.81,108.19,-128.62,-1.89,7.55,-10.52
4570,-41,120.75,-112.5,-2.4,7.99,-6.83
4580,-28.31,148.62,-76.62,-2.22,7.08,-4.24
4590,3.25,160.62,-67.12,-2.06,6.62,-3.39
4600,23.56,169.87,-61.56,-2.34,6.64,-3.07
4610,23.56,169.87,-61.56,-2.34,6.64,-3.07
4620,23.69,172.87,-58.88,-2.58,6.9,-2.52
4630,-0.13,160.81,-50.31,-3.77,9.31,-0.1
4640,-0.13,160.81,-50.31,-3.96,10.16,0.01
4650,-6.44,148.25,-36.06,-4.16,10.42,-0.48
4660,-16.31,131.87,-12.88,-4.16,10.42,-0.48
4670,-36.69,118.81,13.06,-3.8,9.51,-2.52
4680,-64.5,114.62,37,-3.86,7.74,-3.48
4690,-84.44,122.37,55.38,-3.91,6.36,-2.37
4700,-84.06,139.75,71.87,-4.41,5.94,-1.7
4710,-65.44,159.75,83.44,-4.41,5.94,-1.7
4720,-37.25,179.62,91.37,-4.92,5.78,-0.81
4730,-9.63,194.19,96.62,-5.89,6.2,1.63
4740,18.69,199.87,102.44,-6.7,6.22,0.96
4750,37.88,192.12,114.12,-7.01,5.61,-0.29
4760,25.37,173.25,133.69,-7.01,5.61,-0.29
4770,-23.81,157.19,150.94,-6.54,3.46,-2.35
4780,-86.19,152.87,158.69,-6.91,3.33,0.75
4790,-116.25,154.19,163.19,-8,3.16,1.57
4800,-99,152.56,173.62,-7.31,1.63,1.7
4810,-69.19,153.62,185.87,-7.31,1.63,1.7
4820,-56.69,151.12,191.81,-7.24,1.07,1.47
4830,-63.19,145.5,194.19,-7.12,-0.29,2.69
4840,-75.87,133.37,191.75,-6.97,-0.57,2.95
4850,-84.94,117.25,191.5,-6.71,-1.37,2.84
4860,-86,102.75,194.25,-6.71,-1.37,2.84
4870,-86.31,93.19,193.62,-6.2,-3.54,2.53
4880,-92.75,86.69,188.19,-4.87,-4.47,3.95
4890,-95.94,76.5,176.56,-4.19,-4.6,4.62
4900,-83.56,58.31,160.75,-3.42,-5.18,4.05
4910,-58.88,37.25,145.25,-3.42,-5.18,4.05
4920,-37.56,19.5,132.31,-2.72,-5.6,2.75
4930,-37.63,9.88,115.31,-1.76,-5.34,1.41
4940,-57.38,4.75,93.37,-1.41,-4.82,1.93
4950,-73.19,-0.13,76.87,-1.19,-4.76,2.07
4960,-69.75,-6.06,68.69,-1.19,-4.76,2.07
4970,-56.88,-11.94,62.88,-0.51,-5.2,1.46
4980,-53.13,-16.25,53.88,1.19,-6.41,-1.14
4990,-61.25,-15.13,39.13,1.26,-6.12,-1.15
5000,-70.94,-7.94,20.62,0.77,-5.24,-1.01
5010,-70.56,1.69,4.44,0.77,-5.24,-1.01
5020,-62.88,14.56,-7.62,1.17,-4.64,-0.3
5030,-50.56,24.25,-16.37,-0.02,-3.37,0.94
5040,-34.44,21.94,-16.37,0.29,-4.64,-0.25
5050,-25.37,13.63,-10.19,0.53,-5.59,-1.07
5060,-31.19,6.44,-11.88,0.53,-5.59,-1.07
5070,-44.88,4.12,-22.94,0.46,-6.13,-1.52
5080,-52.44,6.81,-38.5,-0.12,-6.68,-2.01
5090,-49.63,15.5,-57.19,-0.6,-6.48,-1.81
5100,-35.19,29.75,-73.94,-1.81,-5.86,-1.03
5110,-18.56,42.44,-87.62,-1.81,-5.86,-1.03
5120,-5.12,52.88,-100,-2.68,-5.43,-0.23
5130,3.75,53.5,-105.31,-3.45,-6.3,0.33
5140,1.5,45.38,-109.25,-3.93,-7.53,0.77
5150,-10.19,34.38,-119.94,-4.06,-8.27,0.97
5160,-25.5,25.19,-135.62,-4.06,-8.27,0.97
5170,-37.31,17.87,-154,-4.24,-8.89,1.45
5180,-32.75,13.31,-175.56,-4.92,-9.72,1.95
5190,-14.5,13.69,-200.81,-5.21,-9.84,2.2
5200,11.69,17.62,-231.44,-5.89,-9.19,2.93
5210,47.25,22.56,-259.94,-6.56,-7.91,3.9
5220,84.75,19.62,-279.44,-7.99,-3.75,5.32
5230,112.37,1.75,-285.25,-8.71,-1.75,5.18
5240,119.44,-24.81,-269.25,-8.93,-0.71,4.68
5250,105.12,-54.94,-245.87,-8.35,-0.47,3.36
5260,75.06,-81.19,-227.81,-7.58,-1.13,2.51
5270,36.38,-101.44,-222.87,-6.59,-1.64,1.93
5280,7.87,-113.87,-237.06,-5.71,-1.13,1.43
5290,8.5,-108.25,-261.62,-6.28,3.53,1.61
5300,44.25,-87.44,-280.44,-7.07,6.88,2.47
5310,98.5,-71.19,-277.81,-7.64,10.09,3.42
5320,147.12,-74.37,-257.5,-9.02,15.01,2.59
5330,163.25,-93.25,-220.87,-9.08,16.9,1.93
5340,140.31,-126.75,-167.19,-8.68,17.76,0.53
5350,89.25,-156.12,-110.81,-7.27,17.18,-2.81
5360,29.56,-169.06,-62.63,-6.1,16.54,-3.57
5370,-12.5,-164.44,-23.87,-5.25,15.88,-3.56
5380,-18,-149.5,5.87,-4.73,15.21,-3.57
5390,11,-123.44,30.37,-4.73,14.23,-3.7
5400,49.75,-96.31,55.25,-5.04,13.83,-4.22
5410,64.31,-74.87,86.31,-5.22,12.81,-4.45
5420,49.13,-66.19,116.56,-5.05,10.31,-3.73
5430,25.94,-70.5,145.87,-4.83,8.66,-3.6
5440,6.69,-78.31,169.56,-4.57,6.93,-3.83
5450,-12,-83.81,188.37,-4.24,5.06,-4.23
5460,-33.38,-83.19,199.44,-3.1,1.25,-4.63
5470,-50.06,-75.06,201,-2.88,-0.27,-4.04
5480,-46.69,-62.31,194.94,-2.71,-1.15,-3.2
5490,-19.56,-43.94,186.75,-2.69,-2.48,-0.46
5500,27.44,-27.44,177.87,-2.76,-2.99,0.73
5510,77.94,-19.44,169.81,-2.9,-3.7,1.38
5520,108.37,-22.19,161.12,-3.12,-4.17,1.43
5530,107.69,-32,155.12,-2.83,-5.29,1.18
5540,85.94,-41.13,151,-2.55,-5.9,1.63
5550,61.75,-50.44,145.75,-2.15,-6.68,2.46
5560,49.88,-64.06,135.81,-1.24,-8.2,3.35
5570,53,-78,119.37,-0.99,-8.67,3.2
5580,64.87,-85.87,96.94,-0.97,-8.76,2.86
5590,79.94,-83.69,73.31,-1.01,-7.83,2.76
5600,93.37,-80.5,57.81,-1.08,-7.31,2.75
5610,96.19,-82.44,51.88,-0.97,-7.04,2.52
5620,82.06,-90.12,52.69,-0.51,-7.24,2.21
5630,57.44,-99.94,50.06,0.36,-8.56,1.86
5640,34.81,-105.75,36.44,0.58,-8.84,2.34
5650,24.19,-111.37,15.38,0.46,-8.67,3.1
5660,29.81,-121.87,-4.19,-0.04,-7.99,3.68
5670,43.94,-138,-16.62,0.11,-7.96,3.07
5680,54.31,-160,-28.06,0.21,-7.79,2.17
5690,63.13,-177.87,-39.13,0.43,-7.47,1.39
5700,77,-193.44,-51.81,0.22,-6.87,-1.34
5710,98.37,-191.5,-63.13,0.32,-6.52,-2.4
5720,123.31,-174.5,-70.69,0.59,-6.33,-3.07
5730,141.62,-159.19,-75.19,0.92,-6.31,-5.05
5740,139.06,-146.44,-78.37,1.64,-6.37,-5.88
5750,113.56,-138.19,-84.69,2.19,-6.4,-6.58
5760,73.62,-136.25,-98.69,2.43,-6.03,-7.15
5770,35.31,-137,-113.75,2.23,-4.47,-8.09
5780,11.69,-142.06,-121.56,2.33,-3.99,-9.05
5790,3.37,-141.56,-125.62,2.45,-3.79,-10.95
5800,-5.37,-118.37,-127.69,2.87,-4.19,-13.49
5810,-11.81,-75.81,-133.56,3.19,-4.61,-13.39
5820,-4.25,-29.44,-148.37,3.16,-4.49,-12.6
5830,21.69,8.81,-167.69,1.33,-2.4,-11.13
5840,56.5,34,-183.19,0.65,-1.38,-11.62
5850,79.06,57,-194.69,-0.32,-0.13,-11.9
5860,87.94,82.06,-199.94,-1.44,1.38,-11.51
5870,94.31,106.06,-196.62,-2.3,3.31,-10.09
5880,104.81,125.81,-194.25,-3.12,4.86,-9.22
5890,119.25,140.37,-187.87,-3.98,6.33,-8.84
5900,120.25,148.25,-169.56,-4.93,7.96,-9.97
5910,87.44,154.81,-142.87,-5.15,8.2,-10.06
5920,30.69,165.62,-112.12,-5.19,7.68,-9.23
5930,-26.56,179,-82.56,-5.12,6.72,-7.9
5940,-65.06,194.87,-59.44,-4.11,4.82,-4.3
5950,-77.56,212.12,-45.88,-3.76,3.98,-2.46
5960,-68.44,226.12,-44.44,-3.93,3.89,-0.49
5970,-41.31,231.37,-45.06,-4.62,4.65,2.25
5980,-15.75,222.62,-37.81,-4.66,4.49,2.32
5990,-15.38,204.62,-27.44,-4.38,4.14,2.31
6000,-35.06,183.75,-20.19,-4.28,3.94,2.42
6010,-55.69,166.56,-12.44,-3.8,3.58,3.27
6020,-67,151.31,-5.25,-3.82,3.43,3.5
6030,-67.25,136.31,-0.56,-3.83,3.56,3.37
6040,-60.88,125.25,4.25,-3.52,3.91,2.83
6050,-53.63,120.69,3.81,-3.83,4.52,3.04
6060,-45.25,118.19,0.37,-4.22,5.54,3.54
6070,-36.56,110.5,2.56,-5.08,7.63,4.14
6080,-31.87,95.31,11.88,-5.43,8.62,4.02
6090,-32.06,75.19,27,-5.73,9.67,3.58
6100,-36.56,53.19,50.31,-6.07,10.37,2.77
6110,-52.69,32.5,80.06,-6.01,9.94,0.33
6120,-84.75,12.38,110,-5.82,9.24,-0.97
6130,-119.81,-2.56,137.06,-5.38,8.43,-2.14
6140,-140.62,-1.25,160.31,-4.13,6.24,-3.04
6150,-142.19,11.31,174.44,-3.87,5.71,-2.71
6160,-122.44,26.19,180.31,-3.44,5.85,-1.99
6170,-86.87,31.5,186,-3.86,5.23,-2.65
6180,-60.94,40.31,194.56,-3.48,4.08,-5.42
6190,-66,51.06,204.75,-3.37,3.44,-6.61
6200,-105,62.75,220.44,-3.27,2.3,-6.89
6210,-160.06,71.81,237.19,-2.09,-1.01,-5.98
6220,-206.62,82.06,246.94,-1.67,-2.34,-4.82
6230,-226.12,97.87,249.5,-2.09,-3.18,-3.57
6240,-211.56,118,245.31,-1.12,-4.08,-1.67
6250,-176.44,130.56,235.69,-1.43,-5.96,1.35
6260,-141.12,123.19,222.25,-0.98,-6.7,2.06
6270,-114.75,92.81,200.81,-0.66,-7.36,1.85
6280,-102.12,52.19,172.31,0,-8.44,-0.92
6290,-102.25,19.87,144.12,0,-8.57,-2.97
6300,-108.62,13.06,120.5,-0.1,-8.58,-4.15
6310,-102.69,32.81,100.37,-0.12,-8.32,-3.64
6320,-75.81,61.69,82.81,-0.24,-7.87,-2.86
6330,-33.69,90.62,69.44,-0.6,-7.78,-2.14
6340,8.06,116.75,58,-1.07,-7.9,-1.71
6350,30.12,135.62,45.5,-1.69,-8.24,-0.08
6360,28.5,141.31,33.38,-1.78,-8.33,0.78
6370,12.81,131.75,20.31,-1.63,-8.3,1.49
6380,-7.87,109.94,6.56,-1.51,-8.9,1.74
6390,-27.37,85.5,-9.63,-1.65,-9.15,1.34
6400,-39.56,71.37,-30.62,-1.6,-9.21,1.2
6410,-37.56,67.12,-53.31,-2.2,-9.03,1.07
6420,-21.37,71.75,-73.56,-3.02,-8.36,1.52
6430,4.5,80.25,-92.44,-3.45,-7.96,1.97
6440,34.19,83.5,-109.56,-3.86,-7.54,2.32
6450,58.19,77.25,-123,-4.27,-6.89,2.15
6460,69,63.19,-134.87,-4.33,-6.85,1.6
6470,62.88,50.06,-145.56,-4.26,-7.04,1.05
6480,42.19,40.19,-159.94,-4.35,-7.15,0.91
6490,18.31,33.56,-178.25,-4.96,-6.35,1.24
6500,4.81,29.87,-198.62,-5.5,-5.45,1.9
6510,11.75,30.5,-217.5,-6.35,-4.03,2.59
6520,38.44,33,-224.69,-7.58,-1.15,3.42
6530,66.31,30.62,-215.94,-7.62,-0.64,3.27
6540,75.56,20.69,-199.19,-7.23,-0.63,3.07
6550,61.63,6.69,-185.06,-6.49,-0.73,3.81
6560,40,-9.63,-180.19,-6.34,-0.6,4.57
6570,29.62,-31.31,-179.94,-6.04,-0.64,4.81
6580,31.06,-57.75,-179.81,-5.72,-0.78,4.1
6590,31.31,-77,-182.5,-5.58,-0.46,1.61
6600,26.31,-81.56,-188.56,-5.52,0.22,1.15
6610,19.62,-80.5,-191.44,-5.32,0.94,0.83
6620,18.75,-74.5,-191.5,-5.36,2.6,0.87
6630,26.44,-65.44,-192.12,-5.25,3.71,1.19
6640,39.44,-60.13,-191.25,-5.36,5.1,1.5
6650,54.56,-58.13,-179.12,-5.55,6.12,1.7
6660,66.5,-60.63,-159.06,-5.04,7.08,1.58
6670,71.69,-67.44,-144.31,-5,7.94,1.73
6680,75.5,-77.12,-132.94,-5.05,8.96,1.55
6690,80.25,-87.75,-118.69,-5.27,11.35,0.54
6700,87.06,-96.25,-98.56,-5.34,12.07,0.14
6710,96.56,-100,-72.44,-5.15,12.47,-0.7
6720,96.56,-100,-72.44,-5.39,13.1,-1.95
6730,101.31,-98,-45.31,-5.45,13.22,-3.08
6740,78.12,-79,26.25,-5.25,12.72,-3.15
6750,55.31,-68.06,60.13,-5.08,11.85,-2.89
6760,26,-63.44,90,-4.11,8.96,-2.15
6770,-5.56,-65.5,108.56,-4.01,8.04,-1.55
6780,-24.37,-66.62,118.06,-4.21,7.66,-0.64
6790,-22.94,-65.5,129,-4.3,6.55,0.99
6800,-5.69,-67.44,140.12,-4.42,5.92,1.03
6810,15.81,-75,154.87,-4.47,4.87,0.38
6820,25.87,-84.06,167.44,-4.41,3.96,-0.49
6830,16.25,-91.75,178.94,-4.15,1.47,-1.87
6840,-9.5,-100.25,189.25,-3.79,0,-2.35
6850,-42.69,-107.19,194.31,-3.33,-1.49,-2.7
6860,-72.81,-111.12,189.06,-2.49,-3.58,-2.71
6870,-72.81,-111.12,189.06,-2.27,-4.01,-2.08
6880,-88.56,-108.19,174.19,-2.38,-3.86,-1.03
6890,-52.38,-92,135.75,-2.63,-3.18,0.05
6900,-9.56,-88.25,127.5,-3.17,-2.49,0.25
6910,19.94,-91.56,130.44,-2.94,-3.03,-0.72
6920,19.94,-91.56,130.44,-2.38,-3.91,-1.64
6930,15.25,-98.5,136.75,-1.52,-5.71,-1.45
6940,-54.19,-109.81,129.75,-1.15,-6.42,-0.77
6950,-66.81,-115.44,117.56,-0.85,-7.1,-0.42
6960,-54.06,-116.37,100.94,-0.63,-7.63,-0.27
6970,-54.06,-116.37,100.94,-0.63,-7.63,-0.27
6980,-26.12,-111.37,80.87,-0.09,-7.8,-0.02
6990,21.69,-104.44,42.81,-0.09,-7.4,0.07
7000,27,-110.62,32.56,0.33,-7.57,-0.67
7010,18.94,-118.56,26.44,0.72,-8.02,-1.04
7020,18.94,-118.56,26.44,0.72,-8.02,-1.04
7030,4.44,-122.31,17.69,1.02,-8.48,-1.06
7040,-7.75,-123.19,-16.69,1.49,-8.68,-0.11
7050,2.62,-126.81,-38.19,1.31,-8.32,0.2
7060,26.31,-134.06,-59.19,1.21,-7.8,0.17
7070,26.31,-134.06,-59.19,1.21,-7.8,0.17
7080,56.5,-143.62,-74.06,1.12,-7.05,-1.93
7090,87.37,-148.75,-91.19,1.47,-6.92,-4.43
7100,76.5,-139.44,-99.06,1.95,-6.62,-5.37
7110,57.06,-127.75,-112.56,1.89,-5.95,-5.16
7120,57.06,-127.75,-112.56,1.89,-5.95,-5.16
7130,44.19,-116.69,-124.94,2.14,-5.34,-4.8
7140,38.44,-107.19,-138.5,2.21,-4.73,-6.58
7150,34,-100.25,-155.31,2.11,-4.08,-6.92
7160,30.56,-89.06,-164.81,2.06,-3.82,-7.44
7170,30.56,-89.06,-164.81,2.06,-3.82,-7.44
7180,29.75,-76.25,-172.62,1.76,-3.12,-8.95
7190,29.56,-40.38,-195.25,0.98,-1.29,-10.15
7200,35.69,-14.5,-202.06,0.17,-0.16,-10.68
7210,40.31,18.19,-200.69,-0.45,1.47,-10.74
7220,40.31,18.19,-200.69,-0.45,1.47,-10.74
7230,38.63,49.06,-195.19,-2,2.27,-10.32
7240,35.5,74.19,-187.44,-2.73,4.42,-9.44
7250,33.19,85.81,-174.62,-2.96,5.69,-9.59
7260,25.87,91,-169,-3.76,7.43,-9.78
7270,21.62,97.56,-170.31,-3.76,7.43,-9.78
7280,30.37,112.12,-166.37,-5.43,10.92,-9.67
7290,51.56,138.06,-145.62,-6.19,11.8,-9.27
7300,68.06,172.12,-108.94,-6.46,11.43,-8.4
7310,65.75,205.19,-69.25,-6.21,9.18,-5.49
7320,42.75,231.81,-29.56,-6.21,9.18,-5.49
7330,2.75,243.75,4.62,-6.18,7.8,-4.16
7340,-46.81,245.44,30.87,-5.47,3.69,1.25
7350,-96,246.25,52.13,-5.46,2.69,3.41
7360,-127.25,246.81,66.56,-5.41,2.11,5.35
7370,-130.94,242.19,71.19,-5.41,2.11,5.35
7380,-109.56,232.12,71.87,-5.44,1.76,6.91
7390,-72.56,217.87,72.37,-4.43,0.54,9.44
7400,-36.38,198.56,69.56,-4.37,0.87,10.18
7410,-9.13,175.56,58.38,-4.69,2.65,11.22
7420,13.06,146.06,41.81,-4.69,2.65,11.22
7430,35.88,107,28.94,-5.2,3.9,10.82
7440,50.75,52.63,23.44,-5.92,6.76,6.82
7450,45.63,-5.31,26.62,-6.3,9.03,2.65
7460,15.06,-50.19,36.06,-6.53,9.85,0.79
7470,-25.12,-80.87,51.94,-6.53,9.85,0.79
7480,-59.19,-86.06,73.69,-6.52,10.38,-0.77
7490,-82.87,-74.12,105.06,-4.89,8.75,-3.04
7500,-91.87,-54,140,-3.99,7.69,-3.01
7510,-87.94,-26.5,168.69,-2.79,5.83,-1.52
7520,-76.87,1.75,186.87,-2.79,5.83,-1.52
7530,-61.75,17.69,197.75,-2.32,5.01,-1.6
7540,-50.44,21.31,208.12,-1.28,2.37,-3.1
7550,-56.81,20.56,216.31,-0.71,0.39,-3.39
7560,-74.62,20.31,218.31,-0.32,-0.74,-3.72
7570,-91.69,19,219.69,-0.32,-0.74,-3.72
7580,-106.37,13.06,220.81,-0.2,-1.88,-4.37
7590,-118.69,8.75,217.31,1.34,-4.99,-5.95
7600,-127.87,8.25,212.25,1.67,-6,-6.27
7610,-130.5,13.88,203,2.06,-6.92,-6.64
7620,-126.44,23.94,189.06,2.06,-6.92,-6.64
7630,-114.81,44.25,167.25,2.71,-7.44,-5.37
7640,-88.69,76,135.19,1.27,-5.36,-1.64
7650,-36.13,103.5,108.62,0.86,-5.29,-1.28
7660,31.87,121.12,97.25,0.58,-5.42,-1.39
7670,79.06,134.62,91.06,0.58,-5.42,-1.39
7680,84.81,140.19,85.75,0.39,-5.59,-1.32
7690,56.44,136.12,81.37,-0.18,-7.63,0.15
7700,12.88,128.5,75.87,-0.16,-8.52,0.72
7710,-28.06,116.75,65.81,-0.23,-9.51,0.73
7720,-51.13,100.81,50.13,-0.23,-9.51,0.73
7730,-50.56,88.62,27.06,-0.14,-10.71,0.31
7740,-30.37,86.5,-7.5,-1.65,-8.12,1.46
7750,9.13,91.5,-45.81,-3.19,-6.38,-0.09
7760,56.38,89.31,-67.5,-3.19,-6.38,-0.09
7770,83.44,77.69,-70.12,-2.7,-6.43,-1.69
7780,76.19,72.31,-71.62,-2.99,-6.95,-2.65
7790,41.06,75.25,-75.56,-3.25,-7.14,-2.69
7800,3.94,80.69,-81.31,-3.24,-8.28,-1.15
7810,-14.31,84.25,-93.5,-3.41,-8.65,-0.65
7820,-8.5,88.12,-115.75,-3.75,-8.36,-0.31
7830,15.88,96.69,-139.94,-4.63,-7.15,0.27
7840,43.88,107.56,-161.69,-4.98,-6.39,0.7
7850,59.81,114.19,-179.81,-5.52,-5.56,1.45
7860,66.94,112.37,-193.75,-6.17,-4.48,2.39
7870,75.62,104.69,-202.06,-7.53,-1.98,4.12
7880,86.5,88.19,-197.62,-7.54,-1.89,3.97
7890,82.81,64.25,-187.75,-7.17,-2.08,3.67
7900,56.63,36.38,-185.5,-7.31,-1.39,3.72
7910,22.5,8,-184.12,-7.47,-1.22,3.66
7920,-2.5,-15.81,-179.75,-7.39,-1.3,3.5
7930,-12.56,-28.5,-176.12,-7.05,-1.32,3.36
7940,-9.94,-31.19,-179.37,-6.99,-0.06,3.89
7950,4.87,-29.87,-187.56,-7.09,1,4.49
7960,28.62,-33.5,-194.44,-7.06,2.35,4.84
7970,52.38,-49.81,-196.69,-7.44,6.36,3.14
7980,69.25,-71.44,-187.12,-7.25,7.97,1.7
7990,77,-82.06,-159.75,-6.63,8.75,0.15
8000,69.19,-80.56,-123,-4.99,8.32,-1.93
8010,44.5,-62.56,-93,-4.42,8.28,-0.32
8020,27.12,-38.94,-76.87,-4.23,8.78,1.73
8030,40.19,-32.75,-68.81,-4.12,9.49,2.6
8040,71.06,-38.25,-59.5,-3.84,11.16,1.65
8050,91.06,-45.19,-47.5,-3.74,11.98,1.17
8060,87,-56.94,-30.25,-3.59,12.55,0.53
8070,63.25,-74.12,-9.25,-4.03,13.05,-0.93
8080,38.31,-87,14.06,-4.14,12.99,-1.62
8090,18.81,-85.94,40.44,-4.28,12.88,-1.86
8100,9.44,-79.06,67.37,-4.29,12.46,-1.78
8110,11.25,-70.44,93.25,-4.23,11.71,-1.6
8120,16.5,-63.13,118.44,-4.19,10.74,-1.46
8130,17.75,-57.31,147.12,-4.04,9.13,-1.63
8140,4.37,-58.31,170.94,-3.69,5.81,-1.7
8150,-25.31,-65.31,186.94,-3.88,4.39,-1.48
8160,-60.5,-76.31,197.62,-3.94,3,-1.08
8170,-86.62,-86.37,204.06,-4.05,1.68,-0.38
8180,-94.69,-98.5,205.87,-3.72,-1.01,-0.09
8190,-89.12,-112.44,205.19,-3.45,-2.38,-0.52
8200,-80.62,-121.12,201,-3.27,-3.55,-0.99
8210,-75.81,-125.31,191.87,-2.7,-5.55,-1.5
8220,-73.75,-126.19,178.44,-2.73,-6.09,-1.33
8230,-65.94,-120.37,163.56,-2.66,-6.52,-0.73
8240,-46.38,-110.56,149.5,-2.51,-6.84,-0.04
8250,-19.75,-102.81,134.25,-2.47,-7.14,0.92
8260,3.87,-100.75,121,-2.19,-7.33,1.18
8270,14.94,-107.75,111.81,-1.71,-7.83,1.07
8280,9.38,-124.19,100.87,-1.12,-8.78,-0.56
8290,-10.13,-137.12,84.37,-0.98,-8.9,-0.79
8300,-29.06,-140.31,65.62,-0.79,-8.82,-0.58
8310,-34.63,-134.94,46.69,-0.72,-8.39,0.8
8320,-22.37,-128.56,32.44,-0.21,-8.68,1.19
8330,-3,-127.19,20.12,0.16,-8.78,1.56
8340,12.88,-130.44,2.31,0.18,-8.6,2.13
8350,28.69,-139.56,-19.12,-0.23,-7.43,2.68
8360,50.75,-156.31,-38.19,-0.7,-6.69,2.26
8370,80.62,-174.87,-49.13,-0.9,-5.94,1.44
8380,113.37,-191.44,-51.88,-0.74,-5.47,-1.27
8390,139.81,-202.62,-54.69,-0.42,-5.29,-3.04
8400,140.37,-208.44,-58.19,0.06,-5.18,-4.43
8410,113,-209.44,-59,0.83,-5.35,-5.5
8420,66.06,-215.56,-64.37,1.6,-5.9,-8.26
8430,8.88,-222.25,-78.94,3.14,-6.16,-9.14
8440,-48.31,-209,-105,1.33,-5.12,-9.54
8450,-82.5,-175.37,-118.81,1.96,-4.41,-8.73
8460,-85.94,-142.69,-121.94,2.5,-4.65,-8.99
8470,-71.81,-114.37,-130.62,2.74,-4.6,-9.06
8480,-50.56,-82.25,-142.12,2.03,-4.08,-8.79
8490,-22.62,-52.63,-152.37,1.57,-4.01,-8.86
8500,6.37,-30.75,-163.56,1,-3.72,-9.12
8510,26.25,-12.81,-175.87,0.44,-3.23,-9.6
8520,29.5,-0.56,-185.94,-1.7,-1.9,-11.67
8530,12.06,12.75,-192.69,-0.7,-0.88,-11.79
8540,-12.88,40.88,-194.37,-1.71,-0.01,-11.27
8550,-24.06,72.19,-200,-3.09,3.39,-8.9
8560,-5,101.75,-201.69,-3.47,4.57,-8.41
8570,27.12,128.12,-194.56,-3.63,5.65,-8.26
8580,51.13,151.75,-184,-4.55,6.72,-8.05
8590,56.38,170.44,-167.5,-5.1,8.43,-8.09
8600,42.25,182.12,-144.12,-5.72,9.07,-7.64
8610,19.81,194.31,-118.19,-6.04,9.6,-6.63
8620,10.63,213.69,-84.56,-6.44,9.04,-4.34
8630,11.5,233.69,-49.5,-6.08,8.13,-3.42
8640,4.94,245.62,-17,-5.83,6.73,-2.29
8650,-20.12,243.69,4.94,-5.62,5.63,-1.24
8660,-52.13,232.31,17.37,-5.05,4.12,0.89
8670,-78.12,218,23.5,-5.18,3.92,2.03
8680,-84.31,205.69,26,-5.46,4.02,2.65
8690,-70.81,193.44,34.19,-4.89,3.36,2.44
8700,-58.5,188.31,40.44,-5.12,3.45,2.71
8710,-47.94,190.69,43.38,-5.38,3.79,3.35
8720,-30.81,195.5,49.88,-5.78,3.88,3.91
8730,-9.69,200.06,62.75,-5.56,2.68,5.06
8740,1,199.44,75.69,-5.46,2.05,5.1
8750,-11,189.69,84.37,-5.36,1.27,5.17
8760,-46.5,174.31,90.5,-4.83,-0.45,6.71
8770,-88.75,152.94,92.44,-4.61,-1.25,7.52
8780,-119.19,128.31,91.06,-4.26,-2.06,8.36
8790,-126.75,103.44,85.31,-3.42,-3.33,9.99
8800,-108.69,78.69,73.12,-3.03,-3.8,10.22
8810,-73.5,52.38,54.25,-2.79,-3.83,10.29
8820,-33.75,23.19,26.5,-2.65,-3.14,10.09
8830,-2.19,-13.5,-3.44,-3.14,0.2,8.42
8840,13.06,-56.38,-25.19,-3.34,1.98,7.08
8850,12.63,-88.62,-34.38,-3.37,3.69,5.96
8860,3.75,-113,-35.38,-3.49,6.95,4.64
8870,-0.56,-135.25,-28.31,-3.48,8.15,3.88
8880,7.87,-154.31,-13.88,-3.16,9.01,2.56
8890,21.44,-163.19,5.94,-2.43,9.32,0.72
8900,23.31,-171.25,23.56,-1.77,10.16,-3.54
8910,10.75,-176.31,34,-1.84,10.88,-5.18
8920,-3.44,-165.56,49.56,-1.83,11.28,-6.3
8930,-11.69,-146.44,73.94,-1.43,10.86,-8.61
8940,-19.75,-127.12,105.19,-0.93,9.85,-10.05
8950,-33.19,-110.06,139.37,-0.26,8.42,-11.58
8960,-52.81,-83.62,168,0.13,6.9,-12.58
8970,-74.75,-41.69,188.69,1.02,3.75,-11.06
8980,-92.5,0.13,200.56,0.89,2.27,-9.31
8990,-96.56,28.31,202.31,0.86,1.3,-7.6
9000,-81.75,41.88,198.12,0.84,-0.34,-6.81
9010,-60.06,49.81,197.25,0.73,-1.5,-7.17
9020,-52.31,58.19,200.62,0.93,-3.05,-7.55
9030,-70.19,63.06,204.37,1.88,-6.31,-7.46
9040,-106.94,66.69,199.06,1.97,-7.33,-6.5
9050,-139.62,76.12,182.37,1.97,-7.65,-4.88
9060,-142.69,91.75,158,1.77,-7.62,-3.05
9070,-109.25,105.5,133.37,0.67,-7.27,-0.69
9080,-51.19,116.31,111.62,0.02,-7.42,-0.43
9090,6.5,124.56,97.37,-0.01,-7.91,-0.49
9100,41,121.56,85.19,0.1,-8.83,-2.05
9110,45.31,110.37,66.87,-0.15,-8.83,-2.93
9120,26.37,106.94,46.94,-0.42,-8.91,-2.93
9130,3.94,115.5,29.31,-0.66,-9.07,-2.27
9140,-5.75,127.94,11.5,-1.37,-9.16,-0.08
9150,4.25,140.31,-7.62,-1.92,-9.05,0.69
9160,28.62,148,-27.5,-1.97,-8.71,1.1
9170,49.56,147.5,-46.94,-3.39,-8.42,2.17
9180,58.19,136.75,-63.94,-3.08,-7.78,3.17
9190,71.56,120.81,-82.37,-3.6,-7.46,3.2
9200,93.06,98,-92,-3.68,-7.46,2.39
9210,105.25,76.06,-99.44,-3.67,-7.59,-0.02
9220,101.25,65.81,-108.81,-3.79,-7.48,-0.73
9230,88.69,68.37,-122.75,-4.05,-6.66,-0.4
9240,79.81,74.94,-137.06,-5.1,-4.74,0.73
9250,82.75,78.44,-142.12,-5.09,-4.46,0.75
9260,87.75,80.5,-140.5,-5.06,-4.57,0.78
9270,82.62,79.75,-141.37,-5.05,-4.18,1.23
9280,64.69,75.87,-146.5,-5.03,-4.14,1.67
9290,38.56,68.19,-153.81,-5.17,-3.87,2.25
9300,14.75,56.56,-166.87,-5.69,-2.89,3.04
9310,8.88,46,-178.5,-6.48,-0.38,4.15
9320,21.5,35.31,-179,-6.8,0.4,3.96
9330,39.69,20.5,-170.56,-6.84,0.81,3.54
9340,48.31,4.62,-158.25,-6.41,1.36,2.79
9350,44.63,-10.31,-148.06,-6.1,1.56,2.74
9360,35,-22.37,-139.94,-6.04,2.1,3.29
9370,32,-32.5,-136.37,-6.17,3.11,3.92
9380,46.38,-42.75,-128.75,-5.85,4.24,3.63
9390,66.69,-54.19,-108.25,-4.94,3.91,2.8
9400,73.37,-69.81,-88.81,-3.96,3.68,1.46
9410,57.44,-87.25,-81.81,-3.53,4.93,-0.47
9420,33.75,-93.75,-84.5,-3.62,6.13,-0.69
9430,28.81,-88.19,-84.69,-3.79,7.21,-0.78
9440,47.38,-69.62,-76.06,-3.88,8.04,-0.75
9450,77.44,-44.31,-59.63,-3.97,8.86,-0.48
9460,97.69,-28.44,-38.94,-3.81,8.8,-0.67
9470,93,-27.5,-16.94,-3.62,8.62,-0.95
9480,93,-27.5,-16.94,-3.5,8.53,-1.03
9490,36.69,-39.5,18.31,-3.22,7.91,-1.33
9500,15.81,-40.06,36.69,-2.9,7.24,-1.35
9510,-0.44,-33.94,47.88,-3.25,7.36,0.72
9520,-7.25,-25.19,54.06,-3.52,7.65,1.95
9530,9.94,-20.31,62.31,-3.52,7.6,2.64
9540,36.75,-21.44,75.75,-3.72,7.34,2.89
9550,48.75,-39.19,87.81,-3.95,7.1,1.28
9560,40.63,-60.81,99.62,-4.02,6.91,0.02
9570,21.19,-79.87,113.37,-3.99,6.5,-1.13
9580,21.19,-79.87,113.37,-3.93,5.35,-2.2
9590,1.5,-86.25,127.37,-3.72,4.28,-1.67
9600,-10.06,-56.75,156.37,-3.59,2.93,-1.51
9610,-17.56,-49.13,168.62,-3.21,1.48,-1.08
9620,-37.69,-51.13,174.06,-2.36,-1.24,-0.44
9630,-37.69,-51.13,174.06,-2,-2.3,0
9640,-64.87,-61,174.06,-1.74,-3.14,0.56
9650,-92.62,-81.06,150.12,-2.11,-3.55,1.47
9660,-78.5,-88.5,132,-2.34,-3.34,1.74
9670,-49.5,-93.62,120,-2.33,-3.77,1.51
9680,-49.5,-93.62,120,-1.87,-4.81,0.91
9690,-21.37,-100.37,117.75,-0.77,-6.59,-0.38
9700,-14.31,-122.62,98.75,-0.69,-6.71,-0.74
9710,-22.31,-130,79.31,-0.62,-6.6,-0.76
9720,-25.62,-133.94,62.25,-0.83,-6.39,-1.33
9730,-25.62,-133.94,62.25,-0.83,-6.39,-1.33
9740,-24.94,-136.37,49.13,-0.75,-6.29,-1.5
9750,-21.81,-132.69,33.31,-0.16,-7.26,-1.75
9760,-23.25,-135.19,27,0.34,-7.77,-2.29
9770,-31,-143,19.19,0.85,-8.3,-3
9780,-31,-143,19.19,0.85,-8.3,-3
9790,-44.88,-149.44,6,1.25,-8.53,-3.43
9800,-43.31,-128.69,-39.81,0.65,-6.51,-2.43
9810,-13.38,-110.81,-56.88,0.96,-5.94,-1.97
9820,24.31,-97.44,-66,1.08,-4.83,-2.63
9830,24.31,-97.44,-66,1.08,-4.83,-2.63
9840,45.5,-93.06,-74.06,0.61,-4.41,-2.94
9850,41.56,-94.69,-90.12,0.95,-2.99,-3
9860,43.88,-93.69,-90.06,1,-2.75,-3.73
9870,52.13,-84.69,-89.31,1.47,-3.1,-3.9
9880,52.13,-84.69,-89.31,1.47,-3.1,-3.9
9890,57.88,-72.94,-85.5,1.92,-3.82,-4.05
9900,35.81,-64.69,-92.44,2.66,-4.78,-3.9
9910,17.12,-73.44,-104.25,2.49,-4.3,-4.45
9920,6.06,-79.19,-121.5,2.07,-3.34,-4.75
9930,6.06,-79.19,-121.5,2.07,-3.34,-4.75
9940,11.81,-77.19,-134.94,1.35,-1.46,-6.59
9950,27.44,-69,-140.5,1.13,-1.28,-8.89
9960,43.44,-47.44,-136.81,0.97,-2.21,-8.81
9970,49.56,-13.63,-130.44,0.84,-2.19,-7.26
9980,39.19,22,-130.69,0.84,-2.19,-7.26
9990,23.19,46.69,-139.44,0.28,-1.36,-5.5
10000,25.25,56.44,-156.06,-1.64,3.68,-6.63
