timestamp,gyrox,gyroy,gyroz,accx,accy,accz
10,-68.19,115,69.87,0,0,0
20,-39.25,121.12,73.75,0,0,0
30,3.37,130.31,85.5,0,0,0
40,45.5,144.81,106.94,2.27,8.14,-16.63
50,57.44,136.56,123.19,2.99,6.42,-17.21
60,7.56,121.69,129.75,5.01,3.11,-19.64
70,-75.25,109.25,132,5.39,2.26,-18.95
80,-124.37,103.31,132.56,5.04,1.78,-17.6
90,-105.75,105.19,133.5,5.91,1.85,-14.82
100,-37.31,114.31,139.44,6.53,1.7,-14.28
110,14.88,107,152.19,6.95,1.44,-14.46
120,14.38,109.37,143.69,8.06,-0.04,-17.2
130,-32.31,113.62,140.87,8.26,-0.29,-16.6
140,-79.5,115.06,144.75,8.46,-0.5,-15.4
150,-95.75,123.06,148.31,8.39,-0.7,-14.09
160,-84.69,135.81,155.81,8.81,-1.04,-12.09
170,-61.81,149.31,167.69,9.19,-1.8,-11.61
180,-44.06,155.12,171.5,8.8,-2.79,-11.47
190,-33.25,148.62,171.56,10.42,-4.51,-10.19
200,-27.5,121.75,159.62,10.52,-4.73,-10.12
210,-23.12,100.94,155.06,11.09,-5.31,-10.47
220,-24.31,89.44,149.62,11.58,-5.99,-10.59
230,-32.5,76.75,132.81,13.04,-8.15,-10.77
240,-45.63,67.12,97.31,13.2,-8.16,-10.36
250,-46,62.19,53.5,13.01,-7.97,-9.74
260,-34.75,52.13,12.06,12.25,-6.67,-8.67
270,-26,28.56,-8.81,11.74,-5.98,-8.96
280,-29.06,6.44,-11.25,11.48,-5.72,-9.64
290,-46.06,-11.06,-9,11.74,-6.12,-10.47
300,-65.62,-24.5,-15.81,12.23,-6.7,-12.03
310,-69,-24.87,-29.62,12.05,-6.12,-12
320,-46.25,-17.06,-39.88,11.36,-5,-11.48
330,-3.12,-7.56,-37.69,11.4,-4.94,-11.72
340,33.19,2.19,-38.56,11.95,-5.69,-12.48
350,43.56,12.38,-51.38,12.33,-6.21,-12.85
360,34.19,20.62,-73.87,11.87,-5.81,-11.61
370,24.87,23.12,-95.25,11.5,-5.14,-10.44
380,26.56,17.62,-110.5,11.22,-4.39,-9.57
390,37.69,5.44,-123.81,10.95,-3.35,-9.14
400,53.31,-8.38,-130.94,10.23,-1.12,-9.55
410,65.94,-21.44,-133.12,9.92,-0.17,-9.84
420,73.19,-30.44,-130.69,9.43,0.66,-10.49
430,68,-34.75,-124.12,9.11,1.52,-11.18
440,45.75,-40.69,-116.62,8.97,1.78,-11.19
450,13.63,-50.19,-109.06,8.93,2.02,-11.25
460,-19.25,-59.94,-101.81,9.09,2.03,-11.28
470,-41.63,-65.75,-99.87,9.41,1.58,-10.92
480,-44.56,-67.37,-107.94,9.39,1.77,-10.21
490,-22.25,-71.5,-123.5,9.05,2.42,-9.69
500,20.06,-80,-138.5,8.06,4.32,-9.81
510,65.12,-93.19,-148,7.59,5.36,-11.14
520,92.25,-104.19,-149,6.88,6.37,-12.81
530,92.25,-104.19,-149,6.17,7.33,-14.18
540,95.19,-107.37,-137.25,5.97,7.83,-15.85
550,51.75,-100.06,-93.75,6.4,7.51,-16.38
560,22.25,-91.69,-84.37,6.4,7.48,-15.97
570,12.63,-89.31,-81.12,5.84,8.15,-14.13
580,12.63,-89.31,-81.12,5.69,8.4,-14.04
590,28.12,-93.37,-76.56,5.54,8.53,-14.43
600,60.13,-105.37,-59.69,5.44,8.51,-15.41
610,56.31,-110.31,-53.06,5.21,8.62,-15.92
620,44.19,-115.69,-48.88,4.8,8.87,-15.91
630,44.19,-115.69,-48.88,4.28,9.2,-16.31
640,33.94,-127.69,-44.38,3.46,9.88,-17.92
650,25.5,-146.5,-30.25,2.9,10.24,-18.45
660,36.69,-145.94,-18.31,2.89,10.51,-19.09
670,55.56,-138.44,-5,3.1,10.78,-20.88
680,55.56,-138.44,-5,3.15,10.65,-22.03
690,68.5,-130.06,11.38,2.95,10.51,-23
700,42.63,-109.44,38,2.55,10.49,-23.49
710,21.87,-104.62,47.88,1.19,11.21,-23.02
720,18.5,-101.06,64.25,0.58,11.26,-22.82
730,18.5,-101.06,64.25,-0.02,10.89,-23
740,28.31,-97.56,86.87,0.03,8.74,-24.73
750,19.69,-86.12,136.62,0.39,7.26,-25.4
760,-11.94,-76.87,153.25,0.78,5.91,-25.5
770,-47.44,-67.94,162.81,0.97,4.7,-25.11
780,-47.44,-67.94,162.81,0.97,4.7,-25.11
790,-69.37,-61.94,164.56,1.43,2.59,-23.3
800,-38.19,-47.06,147.81,1.46,1.83,-21.6
810,0.62,-36.13,139.12,1.35,1.62,-21.14
820,27.5,-23.31,133.94,1.27,1.58,-20.77
830,27.5,-23.31,133.94,1.27,1.58,-20.77
840,35.94,-14.56,132.25,1.22,1.57,-19.99
850,31.75,-13.19,145.25,1.16,0.23,-17.94
860,20.56,-20.31,154.69,1.31,-0.64,-17.53
870,5.62,-28.75,161.37,1.61,-1.75,-17.18
880,5.62,-28.75,161.37,1.61,-1.75,-17.18
890,-7.44,-38.63,162.31,2.26,-4.3,-16.49
900,-28.5,-63.69,131.56,3.01,-6.07,-17.23
910,-37.88,-67,103.94,3.13,-5.46,-17.7
920,-36.06,-59.63,83,3.09,-5.03,-17.3
930,-36.06,-59.63,83,3.09,-5.03,-17.3
940,-19.62,-50.06,71.5,2.98,-4.92,-16.8
950,2.06,-41.69,64.44,2.88,-5.54,-16.42
960,14.5,-39.75,57.81,2.84,-5.79,-16.35
970,12.81,-43.88,52.25,2.87,-6.11,-16.07
980,-0.56,-50.44,44.13,2.87,-6.11,-16.07
990,-15.38,-62.88,31.87,2.8,-6.23,-15.63
1000,-24.81,-78.31,18.25,2.78,-6.08,-16.44
1010,-29.94,-92.37,7,1.82,-5.79,-17.34
1020,-35.56,-106.31,-0.69,1.95,-5.92,-19.05
1030,-42.19,-114.12,-13.5,1.95,-5.92,-19.05
1040,-36.44,-109.37,-32.81,1.54,-5.48,-19.39
1050,-11,-96.56,-48.5,1.49,-5.76,-20.19
1060,24.75,-79.37,-67.94,1.06,-5.32,-20.31
1070,55.19,-65.19,-88.44,0.68,-4.87,-21.05
1080,71.75,-62.5,-103.81,0.68,-4.87,-21.05
1090,69.25,-60.88,-113.5,-0.36,-3.52,-21.87
1100,51.81,-57.19,-111.31,-0.97,-4.18,-22.03
1110,21.37,-57.25,-108.87,-1.19,-4.42,-21.76
1120,-7.19,-60.88,-111.94,-1.56,-4.49,-22.4
1130,-22.25,-68.69,-121.06,-1.56,-4.49,-22.4
1140,-22.5,-79.12,-136.75,-1.75,-4.19,-23.41
1150,-10.94,-91,-161.25,-4.36,0.03,-28.02
1160,14.06,-95.69,-183.25,-4.86,1.31,-29.97
1170,38.94,-82.44,-193.56,-5.11,2.44,-31.38
1180,46.56,-47.56,-194.56,-5.11,2.44,-31.38
1190,37.06,-6.37,-193.62,-5.94,3.83,-31.58
1200,28.75,28.56,-183.69,-7.95,7.54,-31.2
1210,24.5,56.94,-158.12,-7.76,7.7,-31.45
1220,14.06,87.25,-125.56,-7.11,6.92,-29.94
1230,-10.25,123.12,-93,-7.11,6.92,-29.94
1240,-43,156.81,-66.12,-7.06,6.59,-27.99
1250,-65.75,184.06,-43,-5.66,5.69,-24.18
1260,-74.12,207.12,-20.69,-4.16,3.82,-20.16
1270,-80.94,227.06,-5.44,-3.23,3.23,-18.02
1280,-88.44,237.75,1.87,-3.23,3.23,-18.02
1290,-94.25,235.75,3.75,-2.27,2.93,-16.1
1300,-95.56,220.87,-0.25,-0.34,3.79,-11.53
1310,-84.31,192.94,-11.88,0.05,4.37,-11.42
1320,-56.25,156.87,-17.69,0.66,5.27,-13.68
1330,-26.5,117.31,-18.81,0.66,5.27,-13.68
1340,-5.62,86.12,-19.25,1.01,5.82,-16.05
1350,-5.37,72.12,-16.56,1.8,7.09,-19.06
1360,-18,69.25,-19.75,1.78,10.4,-19.45
1370,-15.69,76.44,-28.75,1.12,12.41,-19.62
1380,9.56,86.87,-37.69,1.12,12.41,-19.62
1390,45.88,93.5,-30.37,0.76,14.18,-20.35
1400,72.06,102.56,2.25,0.79,13.3,-24.9
1410,63.5,118.37,48.63,1.29,11.8,-24.87
1420,15.06,136.19,90.06,1.59,10.56,-23.56
1430,-44.31,151.69,124.12,1.59,10.56,-23.56
1440,-93.31,159.87,155.37,2.74,7.14,-20.56
1450,-130.69,156.31,174.44,4.59,4.26,-18.02
1460,-153.69,151.44,182.56,4.59,4.26,-18.02
1470,-155.19,135.37,180.87,4.76,3.46,-16.1
1480,-131.56,116.75,178.87,6.08,3.26,-15.93
1490,-87.25,108.69,176.94,6.04,2.28,-16.52
1500,-41.44,119.56,171.62,6.59,1.48,-17.51
1510,-12.44,139,166.37,7,-0.01,-17.5
1520,-7.75,155.56,160.06,7.44,-0.6,-16.7
1530,-20.81,163.69,156.12,7.74,-1.07,-15.96
1540,-42.63,171.37,158.06,8.49,-2.58,-13.38
1550,-64.94,172,161.5,9.03,-3.53,-11.87
1560,-77.81,161.87,159.06,10.04,-4.45,-10.23
1570,-73.5,143.5,147.94,11.02,-5.88,-8.27
1580,-57.31,122.94,129.56,11.31,-6.3,-7.79
1590,-41.88,97.06,107.12,11.34,-6.57,-7.65
1600,-36.44,60.88,83.19,12.07,-6.79,-8.23
1610,-47.44,25.06,61.81,11.73,-6.89,-9.97
1620,-54.63,4.44,43.56,12.04,-6.47,-10.15
1630,-31.75,3.12,30.44,12.17,-6.34,-10.71
1640,3.56,17.44,18.19,12.14,-6.55,-11.64
1650,25.69,33.81,3.25,11.99,-6.36,-10.98
1660,34.88,39.5,-12.56,11.67,-5.93,-10.4
1670,33.19,33.56,-21.5,11.95,-5.73,-10.27
1680,13.38,18.56,-26.62,11.79,-5.95,-10.95
1690,-18.06,5.31,-35.31,12.18,-5.57,-10.88
1700,-45.38,-2.94,-41.81,11.92,-5.41,-10.75
1710,-62.88,-10.5,-48.25,12,-5.26,-10.9
1720,-66.69,-14.81,-58.06,11.74,-5.08,-11.16
1730,-55.44,-13.13,-66.75,11.88,-5.12,-11.41
1740,-35.69,-11.31,-80.5,11.77,-4.89,-11.55
1750,-9,-5.69,-94.87,11.29,-4.01,-11.75
1760,12.31,-2.12,-105.5,11.23,-3.89,-12.04
1770,16.94,-4.19,-116.94,11.16,-3.61,-12.41
1780,9.56,-6.44,-129.06,10.7,-2.28,-12.39
1790,6.5,-7.12,-141,10.22,-1.26,-11.97
1800,18.44,-5.69,-150.31,9.71,-0.31,-11.59
1810,37.69,-4.94,-155.12,9.39,0.34,-11.33
1820,52.06,-9.38,-159.56,8.9,1.56,-11.04
1830,59.31,-14.75,-163.37,8.51,2.17,-11.09
1840,52.5,-22.44,-162.69,8.28,2.53,-11.21
1850,28.5,-35.56,-160.69,7.91,2.96,-11.46
1860,-3.69,-48.5,-159.12,7.93,3.27,-11.34
1870,-26.81,-59.44,-163.56,7.54,3.99,-10.82
1880,-21.56,-65.19,-170.81,6.58,5.84,-9.93
1890,9.25,-68.69,-173.87,5.98,6.62,-10.27
1900,41.88,-72.87,-174.94,5.28,7.39,-10.95
1910,57.25,-78.19,-169.31,4.83,8.06,-11.68
1920,52.88,-84,-159.62,4.59,9.02,-12.48
1930,37.5,-89.87,-149.06,4.41,9.34,-12.63
1940,22.94,-99.5,-141.5,4.23,9.65,-12.76
1950,20.25,-111,-141.06,3.93,11.16,-13.37
1960,36.06,-119.12,-141.87,3.52,12.25,-14.14
1970,63.25,-119.5,-134.31,2.74,13.22,-15.03
1980,85.25,-113.69,-114.62,2.58,13.73,-16.15
1990,87.31,-101.56,-89.69,2.76,13.55,-17.72
2000,68.06,-93.19,-68.56,2.84,13.4,-17.75
2010,43.44,-95.69,-56.75,2.57,13.68,-17.4
2020,38.81,-101.25,-47.06,1.93,14.7,-17.07
2030,54.75,-108.37,-29.62,1.92,14.38,-18.03
2040,65.31,-110.75,-10.69,2.17,13.68,-19.6
2050,53.75,-104.69,2.37,2.25,13.36,-20.32
2060,29.94,-101.94,14.38,2.11,13.5,-20.4
2070,11.25,-101.75,26.19,1.81,13.69,-20.19
2080,6.62,-105.06,34.88,1.32,14.03,-20.13
2090,18.12,-107.81,45,0.39,14.79,-21.17
2100,36.44,-104.81,61.44,0.04,14.73,-22.03
2110,52.31,-96.5,84.75,0.01,14.08,-22.96
2120,56.94,-85,108.25,0.26,12.19,-24.55
2130,46.19,-70.37,130.5,0.41,10.74,-24.83
2140,23.06,-55.19,147.56,0.68,9.52,-24.43
2150,3.94,-42.63,158.31,0.8,8.45,-23.5
2160,1.12,-34.13,166.31,1.17,6.32,-21.74
2170,9.94,-31.31,169.56,1.32,5.43,-21.5
2180,14.13,-34,169.19,1.29,4.95,-21.69
2190,3.94,-37.75,171.31,0.92,4.27,-22.19
2200,-16.87,-38.69,178.87,1.03,3.55,-22.23
2210,-41.5,-36.81,190.44,1.3,2.52,-22.27
2220,-65.31,-29.06,199.5,1.78,1.41,-21.88
2230,-81.87,-17.31,202.44,2.76,-1.15,-19.42
2240,-86.37,-10.31,193.37,3.27,-1.85,-18.08
2250,-77.62,-7.06,175.12,3.58,-2.14,-16.7
2260,-54.5,-6.12,154.25,3.68,-2.27,-14.33
2270,-21.62,-14.31,135.25,3.7,-2.35,-13.84
2280,13.81,-30.19,119.5,3.99,-2.63,-13.83
2290,49.31,-47.13,105.56,4.17,-3.08,-14.55
2300,77,-53.63,89.44,4.33,-3.59,-16.34
2310,93.37,-47.69,72.87,4.25,-3.65,-16.5
2320,98.81,-39.31,60.38,4.13,-3.85,-16.39
2330,89.44,-35.25,52.19,3.88,-4.52,-15.8
2340,64.56,-40.44,45.13,3.87,-5.02,-15.85
2350,25.31,-56.5,35.25,3.97,-5.43,-16.02
2360,-15.81,-73.87,17.81,3.54,-4.77,-16
2370,-46.13,-83.62,3.81,3.41,-4.45,-15.51
2380,-62.63,-85.37,-9.81,3.12,-4.28,-14.65
2390,-61.19,-93.25,-21,2.73,-4.26,-14.12
2400,-46.81,-107.56,-30.06,3.02,-5.21,-14.71
2410,-23.25,-117.56,-46.69,2.83,-5.39,-15
2420,9.5,-125.5,-65.06,2.33,-5.65,-15.54
2430,40,-137.31,-85.12,1.36,-5.14,-18.24
2440,57.38,-150.62,-101.5,0.13,-4.6,-20.14
2450,57.94,-158.19,-110.62,-0.45,-4.21,-21.89
2460,44,-151.12,-114.25,-0.61,-4.03,-23.23
2470,22.06,-133.5,-115.62,-0.22,-4.42,-24.41
2480,0.19,-112.81,-123.69,-0.44,-4.58,-24.38
2490,-11.19,-92.31,-142.62,-0.62,-4.08,-23.84
2500,2.31,-80.19,-167.94,-2.11,-1.27,-23.34
2510,44.56,-72.44,-191.81,-2.69,0,-24.33
2520,91,-62.69,-206.69,-3.29,0.84,-25.81
2530,115.94,-49.06,-213.44,-4.11,1.67,-27.02
2540,117.56,-29.44,-208.56,-4.51,3.28,-28.78
2550,95.87,-0.88,-188.87,-4.06,3.18,-28.88
2560,47.25,29.06,-161.94,-5.35,3.66,-28.63
2570,-25.06,47.31,-132.69,-4.84,3.75,-25.3
2580,-95.44,46.69,-117,-5.6,4.72,-23.4
2590,-123.62,40.13,-103.56,-5.31,5.37,-22.3
2600,-112.62,40.63,-89.06,-5.15,5.19,-22.43
2610,-96.37,53.88,-78.12,-4.75,5.14,-21.98
2620,-88.37,75.06,-71.62,-4.51,5.14,-20.94
2630,-78.62,98.69,-66.75,-4.34,4.9,-19.78
2640,-74.25,115.5,-63.81,-3.38,4.14,-16.94
2650,-79.75,119.56,-70.87,-2.88,4.66,-15.07
2660,-78,113.44,-84.94,-2.77,5.6,-13.26
2670,-57,94.06,-97.44,-3.67,8.57,-10.97
2680,-18.06,58.06,-103.69,-4.12,10.26,-11.67
2690,25.75,14.38,-96.94,-4.63,11.7,-13.98
2700,57.31,-16.25,-77.75,-4.72,12.45,-17.43
2710,53.56,-26.06,-54.38,-4.87,12.75,-23.16
2720,22.19,-21.12,-35,-4.93,13.01,-24.51
2730,-8.31,-2.31,-20,-5.24,13.64,-24.49
2740,-10.44,18.19,-5.87,-5.6,14.79,-23.65
2750,18.19,32.88,7.62,-5.72,15.24,-24.23
2760,56.19,43.31,23.81,-5.51,15.5,-25.46
2770,78.81,52.63,47.06,-5.56,15.53,-26.97
2780,76.12,69.44,80.19,-4.9,13.37,-29.7
2790,45.94,89.56,112.56,-4.37,12.03,-30.24
2800,0.31,105.62,138.87,-3.98,10.96,-30.46
2810,-42.81,122.69,160.81,-3.91,9.07,-29.57
2820,-70.87,143.25,180.69,-3.76,8.09,-28.93
2830,-89.62,161.75,201.19,-3.55,7.01,-28
2840,-100,177,219,-3.33,4.75,-25.8
2850,-97.25,192.44,240,-2.44,2.92,-25.3
2860,-103.69,202.37,257.06,-0.9,0.87,-25.2
2870,-133.81,206.94,261.69,0.5,-0.73,-24.42
2880,-160.81,212.87,248.06,1.64,-1.46,-21.04
2890,-160.94,217.25,235.12,2.34,-1.5,-19.21
2900,-133.69,225.75,225.75,3.15,-1.65,-17.44
2910,-86.81,235.37,218.37,5,-2.99,-15.69
2920,-45.13,246.81,212.87,5.98,-4.02,-14.96
2930,-21.06,259.25,205.06,6.91,-5.16,-14.02
2940,-13.56,266,191.12,7.65,-6.24,-12.95
2950,-14.44,262.06,172.19,8.25,-8.17,-10.18
2960,-7.25,244.25,148.19,9.8,-9.01,-9.03
2970,16.37,222.62,114.37,10.54,-9.58,-8.21
2980,53.31,203.19,65.25,10.91,-8.56,-7.04
2990,95.56,180.25,23.25,11.14,-8.15,-7.05
3000,129.81,161.25,-3.19,10.98,-8.26,-7.3
3010,144.19,150.56,-24.31,11.32,-8.28,-7.82
3020,126.81,134.31,-39.88,10.25,-8.05,-7.65
3030,105.19,121.31,-56.38,10.57,-7.85,-6.95
3040,99.25,110.12,-62,9.78,-8.57,-7.06
3050,91.75,98.44,-74.56,10.28,-8.89,-6.48
3060,81.12,82.62,-100.75,9.8,-8.31,-5.47
3070,84.87,67.44,-135.75,10.18,-6.62,-4.27
3080,112.5,44.06,-157.06,8.73,-4.32,-3.62
3090,153,16.37,-162.5,8.5,-3.76,-4.78
3100,184.81,-5.25,-159.31,8.75,-3.78,-6.05
3110,183.5,-15.81,-156.81,8.78,-3.85,-7.22
3120,149.44,-21.87,-160.37,8.65,-3.52,-6.98
3130,104.31,-29.31,-171.06,8.29,-2.93,-6.32
3140,104.31,-29.31,-171.06,7.98,-1.91,-5.59
3150,45.19,-57.75,-203.87,6.59,1.27,-4.62
3160,49.19,-79.25,-211.31,5.83,3.14,-4.74
3170,77.37,-96.56,-199.69,5.45,4.22,-5.35
3180,104.56,-112.62,-175.06,5.44,4.59,-6.55
3190,104.56,-112.62,-175.06,6.1,4.45,-9.55
3200,101.75,-130.75,-151.12,6.13,4.63,-10.47
3210,13.63,-164.5,-135.69,5.98,5.23,-11.03
3220,-15.94,-176.81,-144.31,4.98,7.41,-10.97
3230,-9.06,-186,-148.31,4.38,8.66,-11.66
3240,-9.06,-186,-148.31,3.89,9.76,-12.96
3250,22.62,-191.75,-140.56,3.73,10.39,-14.89
3260,62.69,-184.06,-93.69,4.48,10.21,-18.08
3270,41.13,-178,-74.87,4.51,10.4,-18.85
3280,18.56,-171.44,-71.31,4.1,11.13,-19.36
3290,18.56,-171.44,-71.31,3.24,12.83,-19.25
3300,14.88,-158.37,-70.87,2.49,13.68,-19.73
3310,74.62,-139.69,-56.88,1.82,14.3,-20.83
3320,110.06,-126.81,-37,1.6,14.41,-22.28
3330,120,-108.37,-11.13,1.8,13.91,-24.46
3340,120,-108.37,-11.13,1.8,13.91,-24.46
3350,99,-87.19,13.75,1.97,13.29,-24.22
3360,20.5,-57.44,56.69,1.28,13.84,-21.99
3370,1.56,-55.69,75.5,0.88,13.96,-21.8
3380,-1.56,-55.56,101.25,0.66,13.61,-21.89
3390,-1.56,-55.56,101.25,0.66,13.61,-21.89
3400,-5.87,-55.88,127.19,0.52,11.21,-22.22
3410,-20.37,-51.13,181,0.92,9.53,-22.48
3420,-41.81,-48,202.12,1.36,7.7,-22.39
3430,-66.12,-45.75,212,2.4,4.82,-20.92
3440,-66.12,-45.75,212,2.4,4.82,-20.92
3450,-73.06,-44.38,212.31,2.2,3.37,-19.12
3460,-28.69,-40.38,196.06,1.39,2.8,-18.98
3470,-12.38,-47.63,192.37,1,2.55,-19.68
3480,-13.44,-62.75,197.5,0.83,2.15,-20.59
3490,-13.44,-62.75,197.5,0.83,2.15,-20.59
3500,-30.69,-73.06,210.69,0.78,1.32,-21.33
3510,-79.81,-71.69,232.56,2.1,-2.58,-21.7
3520,-98.75,-59.69,227.87,2.4,-3.58,-20.83
3530,-107.06,-49.63,214.69,2.69,-5.04,-18.33
3540,-107.06,-49.63,214.69,2.69,-5.04,-18.33
3550,-98.25,-43.56,193.12,2.81,-5.18,-16.87
3560,-35.75,-53.25,144.06,3.2,-5.23,-15.96
3570,-11.75,-63.25,122.87,3.27,-5.1,-15.93
3580,0,-74,105.62,3.24,-4.86,-15.97
3590,0,-74,105.62,3.24,-4.86,-15.97
3600,3.69,-83.37,94.31,3.15,-4.82,-16.09
3610,-7.12,-99.37,74.75,3.54,-4.7,-16.63
3620,-208.44,-100.75,50.19,5.33,-4.04,-16.83
3630,-208.44,-100.75,50.19,-0.48,3.75,-10.19
3640,-760.12,-51.13,-122.44,-0.48,3.75,-10.19
3650,-299,-4.25,-149.87,-0.18,4.2,-10.61
3660,-106.25,16.12,-85.56,-0.58,4.44,-8.7
3670,25.94,-14.38,-26.69,-0.59,4.81,-8.46
3680,96.25,-86.75,29.37,-0.24,2.82,-11.51
3690,140,-155.25,74.87,-0.24,2.82,-11.51
3700,151.62,-218.44,115.81,1.97,-1,-15.9
3710,142.44,-253.44,98.81,1.18,-6.52,-20.75
3720,-20.37,-259.37,44.88,-0.08,-5.06,-19.62
3730,-160,-262.87,-13.88,-1.14,-4.15,-20.15
3740,-158.12,-261.44,-62.13,-1.14,-4.15,-20.15
3750,-75.62,-242.12,-109.06,-2.07,-2.59,-23.92
3760,28.06,-190.37,-151.75,-2.84,-1.33,-26.16
3770,114.19,-114.5,-184.25,-4.56,0.62,-23.81
3780,156.56,-46.75,-207.5,-5.5,1.43,-22.64
3790,161.87,-13.81,-219.62,-5.5,1.43,-22.64
3800,156.75,-14.31,-224.44,-6.02,2.21,-22.53
3810,147.75,-26.44,-218.69,-6.48,2.69,-27
3820,120.62,-35.38,-209.5,-6.73,3.01,-28.31
3830,65.12,-36.19,-197.81,-6.88,3.47,-28.63
3840,-17.87,-31.31,-182.5,-6.88,3.47,-28.63
3850,-103.87,-22.87,-167.81,-7.44,4.16,-26.99
3860,-151.62,-1.44,-158.37,-7.56,4.54,-24.68
3870,-140.5,28.56,-152.5,-7.56,4.3,-22.86
3880,-92.62,64.56,-152.06,-7.37,3.94,-22.89
3890,-37.5,93.19,-155.12,-7.37,3.94,-22.89
3900,2.12,108.37,-160.75,-6.8,3.98,-22.99
3910,17.37,114.56,-169.12,-7.21,6.64,-23.41
3920,18.44,120.75,-172.62,-7.67,7.81,-22.67
3930,12,133.87,-171.87,-7.85,8.75,-21.84
3940,2.31,147.12,-162.56,-7.85,8.75,-21.84
3950,-12.81,150.81,-139.06,-7.28,9.05,-20.48
3960,-35.31,148.75,-108.31,-5.91,7.36,-18.98
3970,-63.88,143.62,-80.37,-5.24,6.96,-17.96
3980,-90.25,137.06,-62.25,-3.96,5.88,-15.81
3990,-104.69,132.62,-49.81,-3.96,5.88,-15.81
4000,-109.87,129.12,-48.38,-3.43,6.07,-14.37
4010,-97.44,123.87,-57.5,-3.23,8.95,-11.83
4020,-64.44,113.12,-71.19,-3.42,10.49,-13.26
4030,-23.37,82.25,-83.06,-3.92,11.86,-16.05
4040,14.31,37.69,-84.62,-3.92,11.86,-16.05
4050,47.31,7.56,-77.81,-4.17,12.75,-19.56
4060,67.37,7.31,-66.31,-4.71,14.75,-24.93
4070,67.94,25.06,-51.19,-5.53,15.77,-25.52
4080,54.31,39.25,-35,-6.25,16.69,-27.99
4090,33.88,45.88,-10.25,-6.25,16.69,-27.99
4100,0.5,54.75,29.25,-5.77,16.19,-28.96
4110,-47.44,72.31,76.25,-2.69,11.05,-27.13
4120,-98.62,96.37,122.25,-1.79,10.1,-25.26
4130,-133.94,120.56,150,-1.23,9.9,-23.33
4140,-137.12,142.37,158.5,-1.23,9.9,-23.33
4150,-107.44,159.06,156,-0.88,10,-22.33
4160,-70.81,168.62,151.31,-1.1,10.78,-21.42
4170,-45.63,176.12,150.44,-1.1,10.78,-21.42
4180,-27.12,183.06,162.31,-1.23,10.34,-21.62
4190,-29.75,187.62,185.56,0.15,7.58,-22.24
4200,-67.62,192.31,206.31,0.74,6.51,-21.09
4210,-116,194.37,224.25,1.45,5.42,-19.91
4220,-149.81,194.94,238.94,2.54,4.37,-18.83
4230,-166.62,199,248,3.92,2.53,-16.43
4240,-166.44,207.12,245.81,4.47,2.27,-14.56
4250,-138.69,220.81,236.06,4.99,2.13,-12.76
4260,-86.69,240.31,227.62,4.77,1.08,-10.26
4270,-40.94,258.37,223.94,5.68,0.17,-9.2
4280,-25.94,253.62,228.19,6.9,-1.3,-8.5
4290,-40.44,230.37,233.75,8.09,-2.97,-7.93
4300,-65,202.44,229.31,9.77,-5.74,-6.41
4310,-80.69,170.62,217.06,10.81,-7.18,-5.9
4320,-81.5,133.25,200.31,11.97,-8.89,-5.98
4330,-74.19,90.25,166.69,13.73,-10.48,-8.12
4340,-71.5,63.69,110.19,13.38,-10.06,-7.99
4350,-49,66.06,46.38,12.66,-7.79,-6.66
4360,20.62,82.19,6,10.81,-6.34,-5.78
4370,100.06,89,-1.06,10.92,-6.72,-6.55
4380,130.69,77.81,-8.81,11.45,-7.13,-7.2
4390,105.75,52.13,-19.69,11.89,-7.42,-7.46
4400,60.31,9.06,-37.06,11.97,-7.8,-9.09
4410,19.37,-26.87,-55.31,12.03,-7.8,-9.96
4420,-3.87,-39.31,-78.44,11.99,-7.34,-10.4
4430,1.19,-31.62,-106.5,11.19,-5.73,-10.67
4440,26.87,-11.38,-131.75,10.85,-4.47,-10.34
4450,54.88,7.56,-153.69,10.07,-3.16,-9.93
4460,70.94,19.06,-168.62,9.47,-1.86,-9.32
4470,67.81,17.37,-173.75,9.48,-0.52,-8.09
4480,47.88,1.56,-176.69,9.18,0.28,-7.33
4490,33.63,-16.75,-184.44,8.79,1.34,-6.67
4500,41,-33.13,-193.12,8.09,3.95,-6.08
4510,68.94,-49,-202.69,7.42,5.59,-6.54
4520,105.25,-63.38,-206.75,6.99,7.08,-7.42
4530,129,-79.25,-198.69,6.69,8.14,-8.69
4540,126,-96.75,-183,6.72,9.37,-11.04
4550,97.06,-110.25,-160.75,6.79,9.44,-11.99
4560,49.38,-123.56,-138.94,7.07,9.2,-12.85
4570,-3.69,-137.44,-124.75,7.73,8.82,-13.92
4580,-41.63,-142.37,-129.19,7.24,9.7,-13.83
4590,-46.13,-134.37,-143.5,6.3,11.07,-13.45
4600,-14.94,-118.94,-153.94,4.83,14.38,-13.18
4610,36.25,-105.19,-149.94,4.47,15.52,-14.02
4620,77,-96.06,-127.19,4.22,15.93,-15.17
4630,81.87,-93.25,-95.44,4.05,15.84,-16.2
4640,49.06,-96.81,-64.69,4.27,14.95,-17.19
4650,0.88,-101.69,-39.5,4.36,14.35,-17.13
4660,-32.88,-104.56,-25.81,4.4,13.99,-17.15
4670,-38.38,-107.37,-29.44,3.81,15.99,-16.95
4680,-9.31,-105.37,-44.13,2.9,17.77,-17.3
4690,47.44,-93.37,-45.25,2.32,19.2,-18.2
4700,101.44,-74.12,-20.5,2.15,19.77,-19.54
4710,121,-54.88,19.06,2.07,18.72,-21.49
4720,99.5,-40.19,56.88,2.2,17.9,-21.85
4730,51.25,-26.44,88.94,2.02,16.97,-20.86
4740,1.06,-21.69,119.56,2.41,14.56,-18.51
4750,-29.87,-28,143.19,2.97,13.41,-18.38
4760,-35.75,-37.19,158.94,3.55,12.45,-18.4
4770,-23.56,-34.06,169.62,3.99,11.51,-18.44
4780,-5.37,-22.94,178.75,4.59,9.02,-18.19
4790,3.94,-11.88,189.5,4.64,7.62,-17.99
4800,-2.69,-9.38,197.37,4.83,6.39,-17.95
4810,-24.25,-11.19,206.56,5.09,3.48,-17.14
4820,-45.13,-13.5,210.81,5.37,2.22,-16.46
4830,-50.25,-17.56,208.37,5.73,1.24,-15.88
4840,-40.06,-24.19,198.69,6.4,-0.21,-15.42
4850,-22.25,-32.63,188.37,6.64,-1.02,-15.71
4860,-8.75,-43.31,177.81,6.87,-1.9,-16.16
4870,-6.56,-54.81,167.81,7.2,-2.67,-16.78
4880,-16.25,-62.88,157,7.86,-3.85,-17.25
4890,-32.06,-64.06,141.37,7.95,-4.12,-16.84
4900,-44.94,-60.44,124.19,8.09,-4.27,-16.08
4910,-46.75,-57.38,105.06,8.39,-3.58,-14.24
4920,-34.31,-57.25,83.56,8.35,-2.99,-13.63
4930,-12.88,-60.25,65.94,8.29,-2.6,-13.26
4940,5.37,-67.5,54.19,8.11,-2.32,-13.07
4950,13.19,-78.75,46,7.57,-2.01,-12.92
4960,8.31,-94.06,43.94,7.38,-2.54,-13.34
4970,-10.44,-113.19,46.81,7.37,-3.29,-13.69
4980,-34.25,-130.81,41.44,7.92,-3.92,-13.55
4990,-44.94,-145.06,24.37,6.38,-3.05,-14.17
5000,-43.44,-156.87,5.94,6.8,-2.65,-14.61
5010,-44.56,-166.56,-7.44,6.13,-2.68,-14.77
5020,-38.69,-174.31,-27.12,4.83,-1.6,-14.91
5030,-14.19,-183.5,-35.38,4.11,-2.08,-16.04
5040,18.25,-194.44,-43.19,3.51,-2.64,-17.51
5050,45.56,-200.69,-53.69,3.21,-3.49,-20.3
5060,66,-193.69,-68.81,3.02,-3.75,-20.98
5070,80,-170.25,-85.87,2.84,-3.91,-20.95
5080,85.25,-148.31,-104.06,1.5,-3.06,-20.68
5090,84.62,-144.12,-122.62,0.4,-2.3,-21.14
5100,86.56,-152.69,-134.25,-0.39,-2,-22.27
5110,85.12,-166.12,-135.62,-0.37,-1.94,-23.75
5120,64.81,-178.75,-132.5,-1.41,-1.28,-27.66
5130,19.19,-171.19,-126.19,-1.35,-1.59,-28.2
5140,-37.63,-148.31,-120.56,-2.26,-2.22,-28.15
5150,-82.31,-130.19,-124.37,-3.21,-2.24,-28.05
5160,-101.75,-103.19,-137.62,-3.74,-2.04,-27.87
5170,-93.5,-71.19,-156.5,-5.04,-1.63,-27.6
5180,-60.81,-45,-186.25,-6.06,-0.54,-27.47
5190,-6.87,-18.44,-214.19,-8,2.55,-28.37
5200,50.63,14.94,-225.56,-7.52,3.44,-29.16
5210,76.69,50.13,-218.37,-7.81,3.7,-29.65
5220,63,81.06,-211.69,-8.54,5.81,-27.21
5230,40.31,98.5,-207.06,-8.71,6.91,-26.35
5240,35.63,107.31,-196.94,-8.67,7.59,-26.09
5250,37.75,117.25,-178.5,-8.43,7.79,-26.18
5260,22.56,127.5,-156.56,-7.9,8.09,-25.46
5270,-14.31,140.56,-133.25,-7.62,8.02,-24.1
5280,-56.75,154.87,-106.56,-6.97,7.68,-22.36
5290,-91.5,167.25,-80.44,-5.77,6.21,-18.52
5300,-116.19,175.94,-60.06,-4.49,5.39,-16.52
5310,-135.25,182.5,-46.81,-3.88,4.92,-14.25
5320,-147,182.19,-38.25,-3.07,4.46,-12
5330,-149.81,166.12,-35,-2.04,3.92,-8.66
5340,-137.75,143.25,-41.63,-1.83,4.11,-7.63
5350,-113.31,111.62,-51.81,-1.47,4.5,-7.09
5360,-83.37,67.87,-65.75,-1.58,6.35,-8.26
5370,-52.88,10.25,-79.62,-2.01,8.25,-11.05
5380,-25.56,-39.75,-94.69,-2.48,10.44,-14.1
5390,-1.5,-50.81,-103.37,-4.08,14.43,-17.68
5400,20.87,-42,-97.12,-4.79,15.7,-19.16
5410,39.56,-29.37,-77.69,-5.39,16.77,-20.14
5420,50.06,-19.5,-55.44,-5.98,17.92,-21
5430,54.19,-16.62,-25.44,-6.48,18.99,-24.11
5440,45.56,-20.44,14.38,-6.45,18.77,-26.23
5450,19.31,-16.81,58.75,-6.04,18.35,-27.39
5460,-16.19,3.44,106.37,-4.76,16.06,-27.99
5470,-47.94,33,151.19,-4.06,14.71,-27.16
5480,-68.44,66.62,185.56,-3.34,13.44,-25.85
5490,-72.94,91.5,210.12,-2.23,12.01,-24.92
5500,-70.75,102.37,225.56,-0.22,9.35,-24
5510,-68.75,106.12,230.31,0.52,8.64,-23.68
5520,-62,108.56,232.37,0.96,7.85,-23.78
5530,-52.75,114.37,234.56,1.91,6.43,-23.87
5540,-47.13,126.62,233.56,2.36,5.93,-23.59
5550,-42,145.12,237.37,2.92,4.89,-23.27
5560,-42.56,165.62,248.5,3.78,3.4,-22.72
5570,-57.75,183.19,256.5,5.34,0.64,-20.61
5580,-86.44,188.94,257.19,6.54,-0.46,-19.36
5590,-117.81,183.81,248.37,7.3,-1.08,-17.99
5600,-132.94,173.44,231.12,7.51,-1.48,-15.84
5610,-121.69,166,213.5,7.9,-1.61,-15.11
5620,-91.25,163.12,199.5,8.55,-2.04,-14.87
5630,-59.31,159.5,189.62,10.03,-3.51,-15.07
5640,-39.94,155.19,177.06,10.51,-4.1,-14.79
5650,-26.5,156.94,157.87,10.96,-4.58,-14.32
5660,-3.44,169.75,135.75,11.58,-5.1,-13.52
5670,30.5,193.87,110.37,12.5,-5.73,-11.14
5680,68.19,221.37,79.12,12.88,-5.44,-9.2
5690,109.69,240.81,39.5,12.48,-4.45,-7.4
5700,159.25,249.69,0.88,11.22,-2.11,-4.86
5710,204.06,251.19,-18.56,12.34,-1.81,-3.1
5720,243.87,254.56,-25.81,12,-1.52,-2.79
5730,280.19,267.25,-16.19,13.07,-1.66,-2.84
5740,283.5,250.06,2.81,13.17,-3.81,-0.51
5750,251.62,172.5,4.37,13.56,-4.27,0.25
5760,214.37,108.94,-11.06,13.38,-4.36,0.41
5770,184.19,52.25,-23.12,13.14,-4.27,-1.93
5780,157.75,0.94,-26.37,13.53,-4.53,-3.43
5790,132.06,-31.44,-25.81,13.7,-4.87,-5.01
5800,102.62,-49.81,-26.19,13.86,-5.03,-6.51
5810,65.94,-56.69,-29.56,12.9,-5.29,-9.02
5820,21.94,-50,-36.25,12.35,-5.23,-9.5
5830,-29.81,-31.37,-41.63,11.78,-5.25,-8.62
5840,-80.19,-22.62,-40.5,11.23,-6.31,-6.92
5850,-80.19,-22.62,-40.5,11.7,-7.24,-7.11
5860,-141.44,-63.56,-36.06,12.21,-8.06,-7.86
5870,-152.87,-91.62,-49.25,11.7,-7.88,-8.32
5880,-145.81,-125.56,-73.87,11.1,-6.91,-8.42
5890,-117.5,-163.87,-97.56,10.93,-5.82,-9.77
5900,-66.62,-165.5,-125.25,10.64,-4.56,-12.63
5910,-66.62,-165.5,-125.25,9.39,-2.5,-13.87
5920,44.88,-63.63,-170.12,8.81,-1.22,-12.82
5930,83.87,-28.25,-184.5,8.12,-0.08,-11.78
5940,109,-15,-192.25,7.52,1.55,-10.83
5950,109,-15,-192.25,7.33,2.29,-10.4
5960,108.69,-22,-195.75,7.06,3,-9.74
5970,55.69,-54.25,-198.75,6.62,4.08,-8.93
5980,39.94,-77.37,-204.75,5.45,6.74,-8.16
5990,50.56,-103.12,-204.56,4.98,7.8,-9.07
6000,50.56,-103.12,-204.56,4.79,8.39,-10.6
6010,76.31,-126.25,-194.12,4.67,9.06,-13.66
6020,89.06,-149.87,-166.06,4.54,9.38,-14.56
6030,65.37,-153,-155.81,4.36,9.6,-15.17
6040,37.44,-153.56,-146.06,4.21,10.4,-15.51
6050,37.44,-153.56,-146.06,3.85,10.92,-16.15
6060,17.75,-156.12,-140.12,3.34,11.63,-16.95
6070,25.25,-151.5,-131.87,3.01,12.37,-17.52
6080,31.25,-139.44,-124.31,2.38,14.17,-17.82
6090,27.31,-135.25,-116.94,2.23,15.51,-18.07
6100,27.31,-135.25,-116.94,1.37,16.74,-18.37
6110,10,-141.25,-110.25,1.02,17.42,-20.34
6120,-34.56,-176.62,-61.13,0.69,17.2,-21.61
6130,-32,-173.06,-33.06,0.5,16.88,-22.53
6140,-12.94,-147.56,-9.31,0.07,16.43,-23.33
6150,-12.94,-147.56,-9.31,0.07,16.43,-23.33
6160,7.06,-111.25,7.44,-0.51,17.04,-22.47
6170,33.63,-46.13,32.94,-0.8,17.78,-21.55
6180,49.5,-26.31,50.94,-0.14,16.72,-21.89
6190,62.38,-17.69,86.12,0.5,14.5,-22.92
6200,62.38,-17.69,86.12,0.5,14.5,-22.92
6210,40.31,-15.5,120.31,0.91,12.81,-23.25
6220,-44.13,-20.06,148.44,0.64,10.8,-22.03
6230,-24.31,-5.19,150.06,0.34,10.62,-22
6240,23.81,20.06,147.37,0.19,10.95,-22.25
6250,23.81,20.06,147.37,0.19,10.95,-22.25
6260,71.19,51.19,148.5,0.08,10.7,-22.06
6270,54.44,93.87,193.5,1.61,7.36,-21.31
6280,-26.69,88.37,224.69,2.36,5.43,-19.66
6290,-108.87,75,248.31,3.78,1.66,-16.02
6300,-108.87,75,248.31,3.78,1.66,-16.02
6310,-144.06,59.56,258.25,4.47,0.62,-14.71
6320,-64.5,61.56,227.87,5.5,-0.44,-13.06
6330,-64.5,61.56,227.87,5.81,-0.75,-13.3
6340,-11.69,62.81,208.75,6.27,-1.12,-13.4
6350,8.88,54.75,197,6.27,-1.12,-13.4
6360,-5.81,42.06,193,6.76,-2.27,-12.55
6370,-42.13,28.25,193.94,8.01,-4.64,-11.37
6380,-81.81,11.31,201.69,8.62,-5.72,-10.93
6390,-113.37,-9.38,205.5,9.73,-7.53,-9.69
6400,-134.12,-26.19,199.12,9.73,-7.53,-9.69
6410,-144.12,-43.88,182.44,10.3,-7.95,-9.21
6420,-139.56,-64.81,153.94,10.66,-6.86,-9.54
6430,-128.75,-90.25,115.87,10.29,-5.59,-10.53
6440,-115.44,-127.12,72,8.63,-4.51,-12.31
6450,-88.12,-155.87,37.19,8.63,-4.51,-12.31
6460,-50.13,-168.44,16.5,8.46,-3.28,-14.23
6470,-22.19,-166.37,12.75,7.52,-3.72,-15.81
6480,-17,-155.37,2.37,7.58,-3.85,-15.36
6490,-10.5,-144.31,-11.75,7.51,-4.18,-15.27
6500,13.63,-134.25,-21.62,7.51,-4.18,-15.27
6510,31.69,-131.5,-35,7.16,-4.07,-15.19
6520,35,-141.12,-50.25,6.08,-3.34,-16.78
6530,32.13,-165.75,-64.06,5.1,-2.28,-19.3
6540,36.13,-190.87,-78.81,4.33,-2.07,-20.47
6550,52.13,-198.56,-87.37,4.33,-2.07,-20.47
6560,73,-191.69,-92.06,3.9,-2.12,-21.73
6570,83.69,-177.31,-92.62,4.22,-2.86,-22.96
6580,76.62,-157.12,-95,4.07,-3.25,-22.47
6590,62,-132.5,-99.94,3.19,-3,-21.79
6600,41.06,-116.12,-107.75,3.19,-3,-21.79
6610,21.94,-118.5,-122.5,2.63,-2.29,-22.1
6620,21.5,-127.81,-141.87,0.53,-0.88,-24.53
6630,38.38,-134.5,-159.44,-0.43,-0.26,-27.66
6640,53.56,-130,-166.25,-0.58,-0.36,-27.92
6650,46.06,-110,-165.94,-0.58,-0.36,-27.92
6660,14.88,-83.62,-167.37,-1.47,0.01,-27.1
6670,-8.19,-65.12,-179.5,-3.93,2.63,-28.47
6680,-2.94,-54.25,-192.19,-4.48,3.62,-29.23
6690,16.69,-40.69,-203.25,-5.72,5.09,-30.31
6700,36.31,-19,-210,-5.72,5.09,-30.31
6710,41.44,19.69,-194.44,-5.8,5.88,-29.69
6720,20.56,64.81,-165.62,-5.43,5.5,-25.22
6730,-14.75,99.94,-140.94,-3.97,4.97,-21.8
6740,-42.75,112.81,-120.31,-3.41,4.47,-20.58
6750,-49.88,117.87,-104.37,-3.41,4.47,-20.58
6760,-37.5,122.87,-97.62,-2.84,4.54,-19.37
6770,-22.5,123,-99.19,-2.15,6.06,-16.65
6780,-7.75,115.75,-102.62,-1.83,6.48,-16.57
6790,9.06,105.25,-102.75,-1.93,6.66,-16.27
6800,21,96.75,-97.37,-1.93,6.66,-16.27
6810,19.37,94.62,-84.87,-1.06,5.7,-14.77
6820,0.88,90.81,-68.87,-0.83,4.99,-12.68
6830,-26.5,76.37,-58.69,-1.26,5.11,-12.5
6840,-37.69,54.25,-55.19,-1.55,5.51,-12.96
6850,-26.87,30.12,-57.06,-1.55,5.51,-12.96
6860,-6.25,10.06,-61.25,-2.01,5.93,-14
6870,9.56,-10.69,-62.88,-2.32,6.5,-15.38
6880,11.88,-31.06,-64,-3.82,8.97,-18.38
6890,13.25,-46.06,-62.75,-4.46,9.76,-20.65
6900,26.19,-48.19,-51.88,-4.61,9.83,-22.69
6910,37.63,-29.81,-36.81,-5.51,11.11,-24.22
6920,39.56,-4.12,-24.5,-5.61,11.66,-24.46
6930,38.88,19.75,-6.06,-5.56,12.16,-24.19
6940,38.38,43.38,15.69,-5.37,12.53,-23.59
6950,39.63,59.75,40.31,-4.4,11.62,-22.96
6960,27.81,71.56,92.62,-3.51,10.6,-22.82
6970,27.81,71.56,92.62,-3,9.6,-22.75
6980,13.5,69.06,109,-2.04,8.57,-23.25
6990,3.25,63.13,118.37,-1.75,8.66,-23.81
7000,7.5,62.13,124.87,-1.81,8.44,-24.65
7010,38.81,92.19,149.81,-0.82,7.35,-25.77
7020,38.81,92.19,149.81,0.38,5.78,-26.41
7030,33.31,112.62,158.44,0.71,4.86,-25.87
7040,31.06,134.37,165.19,1.2,4.07,-25.27
7050,38.13,153.81,168.69,2.3,1.76,-24.29
7060,19,169.12,160.31,2.56,1.54,-23.48
7070,19,169.12,160.31,2.72,1.42,-22.97
7080,-9.56,157.5,163.62,3,0.44,-23.37
7090,-15.94,159.31,171.31,3.05,-0.4,-23.91
7100,-20.87,171.44,184.94,3.65,-1.82,-24.31
7110,-36.63,190.12,196.69,4.37,-3.54,-24.51
7120,-36.63,190.12,196.69,6.49,-7.07,-22.54
7130,-62.69,213.94,198.75,7.47,-8,-19.97
7140,-52.88,250,146.75,7.89,-7.87,-17.3
7150,3.37,253.87,117.19,8.33,-7.23,-13.7
7160,67.25,255.44,92.44,9.16,-7.23,-12.93
7170,117,260.62,71.62,9.97,-7.29,-12.03
7180,140.25,266.62,56.06,10.63,-7.53,-11.4
7190,131.81,268,45.44,10.71,-7.39,-8.75
7200,110.75,248.19,42.44,11.04,-7.67,-6.92
7210,101.06,202.75,44.19,11.25,-8.39,-5.6
7220,105.5,149.5,43.88,13.08,-10.97,-6.86
7230,108.25,122.62,32.31,13.98,-12.29,-8.53
7240,100.94,127.25,5.44,14.45,-12.91,-9.07
7250,95.06,147.81,-27.06,14.4,-12.76,-7.98
7260,95.69,155.19,-48.88,13.59,-11.22,-4.4
7270,99.87,146,-58.81,13.42,-10.55,-4.24
7280,84.62,130.19,-63.44,13.75,-9.53,-4.79
7290,48.25,109.94,-66.25,13.09,-7.85,-4.5
7300,17.25,84.25,-59.75,12.68,-7.63,-4.66
7310,-22.56,60.69,-50.69,13.04,-8.12,-5.1
7320,-72.25,45.25,-53.38,13.53,-8.2,-5.94
7330,-108.75,44.06,-60,12.94,-8.27,-4.9
7340,-112.62,42.81,-68.81,12.67,-8.32,-4.95
7350,-100,49.88,-80.87,12.61,-8.04,-4.77
7360,-84.19,58.25,-91.44,12.01,-7.84,-4.35
7370,-80.5,52.69,-104,12,-7.6,-4.58
7380,-91.56,40.81,-119.62,11.87,-7.19,-4.55
7390,-103.25,28.5,-135.75,11.1,-5.55,-4.86
7400,-109.5,25.44,-148.06,10.72,-4.29,-4.44
7410,-97.25,27.75,-155,10.04,-2.82,-3.51
7420,-61,27.62,-153.25,10.05,-1.77,-2.75
7430,-14.25,22,-153.37,9.86,-0.89,-2.16
7440,24.06,12.19,-156.44,9.81,-0.34,-2.36
7450,43.56,-5.81,-157.75,9.51,0.31,-2.77
7460,40.81,-33.69,-156.19,9.24,1.25,-3.26
7470,25.19,-63.13,-155.69,9.26,1.71,-3.19
7480,13.38,-92.31,-160.19,8.9,2.39,-3.25
7490,14.94,-117.62,-164.06,8.54,3.12,-3.69
7500,23.12,-136.87,-169.12,8.13,4.58,-5.29
7510,32,-151.94,-174,7.75,5.72,-6.18
7520,42.25,-163.56,-172.25,7.34,6.78,-6.95
7530,57.88,-179.19,-162.56,6.69,8.3,-8.3
7540,73.62,-196.25,-143.25,6.68,8.26,-9.52
7550,71.81,-211.56,-124.87,6.85,7.66,-10.69
7560,54.5,-222,-120.31,7.87,6.82,-12.17
7570,42.69,-213.87,-131.37,7.89,7.5,-13.1
7580,53.38,-203.87,-149.19,6.77,8.67,-13.28
7590,86.81,-207.37,-161.19,5.84,10.04,-13.89
7600,128.75,-210.81,-159.62,4.07,13.1,-16.6
7610,158.25,-212.94,-136.5,3.22,13.95,-19.07
7620,150.56,-207.81,-97.69,2.83,14,-21.87
7630,99.62,-187.87,-57.81,3.37,13.07,-25.12
7640,23.75,-153.44,-21.06,3.96,12.04,-24.85
7650,-49.13,-117.5,3.06,3.92,10.92,-22.86
7660,-89,-97.62,11.19,4.16,10.21,-20.19
7670,-83.06,-97.37,2.75,3.8,10.06,-15.79
7680,-29.75,-112.19,-13.38,2.99,11.4,-15.5
7690,40.81,-119.5,-19.5,2.39,12.14,-17.51
7700,76.87,-115.62,-9.19,2.07,13.49,-21.51
7710,60.44,-104.56,17,1.79,13.41,-22.11
7720,14.63,-93.5,49.44,1.61,12.89,-21.89
7730,-34.13,-85.62,76.25,1.74,11.99,-20.99
7740,-60.5,-84.31,93.06,1.97,9.74,-17.92
7750,-56.44,-93.12,97.19,1.96,9.15,-17.45
7760,-39.88,-105.31,95.94,1.92,8.68,-18.09
7770,-25.31,-117.19,90.37,1.32,9.82,-20.61
7780,-14.56,-122.25,95.06,1.31,10.33,-22.44
7790,-21.44,-116.31,108.69,1.53,10.1,-23.8
7800,-33.13,-104.19,117.37,1.29,10.13,-24.29
7810,-22.75,-75.5,126.81,1.32,9.96,-23.97
7820,4.25,-39.81,136.56,1.38,9.21,-23.41
7830,32.19,-14.69,138,1.27,8.8,-22.45
7840,59.69,-3.44,141.44,0.8,8.86,-21.14
7850,75.81,-3.44,154.12,0.86,8.29,-22.04
7860,60.13,-3,172.12,1.2,7.38,-23.39
7870,13.06,4.25,190.25,1.65,5.35,-23.4
7880,-33.69,18.87,205.81,1.92,4.21,-21.82
7890,-58.81,31.62,218.25,2.19,2.86,-20.28
7900,-69.37,40.44,221.19,2.93,1.61,-19.07
7910,-69.75,46.38,214.06,3.62,-0.1,-15.68
7920,-56.5,40.94,201.94,4.03,-0.61,-14.33
7930,-34.75,27.75,187.94,4.32,-1.07,-13.49
7940,-18.62,6.19,176.31,4.81,-1.71,-13.79
7950,-22.5,-14.69,167.06,5.29,-2.01,-14.27
7960,-42.25,-25.5,162.25,5.63,-2.53,-14.31
7970,-65.06,-34.06,157.94,5.72,-3.15,-13.97
7980,-75,-40.25,145.94,6.04,-4.58,-13
7990,-67.06,-42.5,127.31,6.15,-4.94,-12.34
8000,-48.75,-47.63,103.69,6.41,-5.14,-11.77
8010,-28.31,-59.69,77.12,7.26,-4.76,-11.1
8020,-16.12,-79.5,55.06,6.46,-4.47,-11.94
8030,-33.25,-104.81,41.75,6.67,-3.93,-13.07
8040,-72.81,-133.31,27.06,6.61,-4.08,-13.71
8050,-95.25,-154.5,8.88,5.89,-3.49,-13.96
8060,-74.87,-159.81,-4.69,5.62,-3.46,-14.02
8070,-25.31,-155.69,-23.44,5.11,-3.47,-14.21
8080,28.44,-150.69,-39.69,4.44,-3.68,-15.32
8090,59.38,-157.5,-51.31,3.98,-4.32,-16.44
8100,57.44,-181.06,-68.19,3.42,-4.47,-17.9
8110,46,-202.06,-86.87,2.27,-3.22,-20.53
8120,47.06,-204.75,-97.25,1.65,-2.84,-21.73
8130,58.25,-192.31,-102.19,1.23,-2.72,-22.64
8140,71.87,-167.5,-103.31,1.05,-3.04,-23.4
8150,72.87,-140.62,-109.06,1.21,-4,-24.03
8160,54.13,-120.87,-123.62,0.85,-4.11,-23.73
8170,25.25,-110.19,-141.5,0.03,-3.65,-22.94
8180,1.06,-110.5,-156.31,-1.69,-2.07,-21.89
8190,-7.81,-117.19,-165.44,-2.57,-1.45,-22.22
8200,0.62,-117.94,-167.56,-3.16,-1.37,-23.6
8210,3.81,-107.25,-170.69,-3.44,-1.92,-24.91
8220,-2.5,-88.94,-185.81,-4.1,-1.94,-26.12
8230,-7.31,-66.94,-206.81,-5.02,-0.95,-26.02
8240,3.56,-43.13,-225.25,-6.08,0.75,-25.47
8250,26.56,-24.37,-229,-7.85,4.14,-26.32
8260,36.5,-9.5,-217.44,-8.63,4.79,-27.54
8270,18.75,2.25,-200.56,-8.87,5.32,-28.72
8280,-11.69,24.31,-180.87,-9.12,6.03,-28.92
8290,-29.75,59.25,-161.94,-9.12,6.27,-27.74
8300,-24.37,98.37,-143.69,-8.73,5.99,-26.1
8310,-8.63,131.06,-130.44,-8.18,5.29,-24.58
8320,-4.56,151.37,-122.75,-6.85,3.98,-21.85
8330,-15.94,162.44,-120.69,-6.52,3.83,-20.06
8340,-29.12,164.19,-119.81,-6.47,4.14,-17.96
8350,-36.81,154.44,-117.81,-5.98,4.97,-14.57
8360,-42.13,135.44,-114.69,-5.71,5.28,-13.69
8370,-50.81,111.62,-109.87,-5.46,5.55,-13.11
8380,-59.38,85.37,-105.5,-5.38,6.09,-12.46
8390,-54.94,60.63,-96.56,-5.45,6.94,-12.06
8400,-39.06,44.69,-84.87,-5.07,6.77,-12.28
8410,-26.87,33.38,-78.62,-4.75,6.64,-12.42
8420,-27.5,15.31,-78.69,-5.43,7.5,-12.79
8430,-32.81,-16.75,-79.81,-5.72,8.5,-14.03
8440,-29.69,-47.69,-80,-6.06,9.69,-16.12
8450,-14.31,-55.06,-75.56,-6.54,10.8,-18.42
8460,-14.31,-55.06,-75.56,-6.94,12.71,-21.97
8470,16.75,-28.37,-50.25,-7.06,13.66,-22.96
8480,27.37,-10.44,-27.31,-7.28,14.33,-23.81
8490,33.44,5.31,1.69,-7.24,14.72,-25.86
8500,29.44,24.19,34.38,-6.84,14.08,-26.66
8510,15.88,40.25,65,-6.19,13.24,-27.09
8520,1.06,53.31,88.87,-5.81,12.65,-27.33
8530,-8.94,68.19,113.37,-4.45,11.01,-27.55
8540,-15.88,86.37,136.12,-3.77,9.86,-27.82
8550,-30.69,103.75,152.44,-2.9,8.72,-27.94
8560,-53,116.87,160.06,-2.11,7.51,-26.19
8570,-60.88,123.69,164.62,-2.09,7.49,-25.01
8580,-48.25,124.12,173.69,-1.78,6.99,-24.86
8590,-37.94,125,183.44,-0.88,5.07,-25.89
8600,-39.44,133.06,191.94,-0.23,4.14,-26.14
8610,-39.44,133.06,191.94,0.73,3.13,-25.84
8620,-50.81,150.44,199.12,1.45,2.37,-24.62
8630,-71.37,195.94,198.37,2.34,1.23,-20.83
8640,-62.63,214.25,194.12,2.87,0.72,-18.83
8650,-46.56,221.62,186.12,3.75,0.48,-16.83
8660,-46.56,221.62,186.12,4.67,0.12,-14.16
8670,-30.5,215.5,178.19,5.4,-0.16,-13.29
8680,-28.37,175.06,174.81,6.35,-0.8,-13.01
8690,-50.81,141.19,173.44,7.1,-1.55,-13.36
8700,-80.62,106.31,164.69,8.16,-2.6,-15.21
8710,-80.62,106.31,164.69,8.68,-2.86,-15.85
8720,-88.56,99.19,149.69,8.78,-3.02,-15.45
8730,-10.69,172.37,105.5,8.37,-2.81,-12.16
8740,38.88,200.12,91.19,8.94,-3,-10.96
8750,70.56,213.5,81,9.51,-3.43,-9.97
8760,70.56,213.5,81,10.09,-3.79,-8.88
8770,82.31,215.5,69.25,10.82,-4.13,-7.08
8780,62.5,186.75,42.38,11.02,-4.16,-6.06
8790,53.13,163.44,30.12,11.48,-4.08,-5.4
8800,52.5,131.25,19.62,12.07,-4.35,-5.13
8810,52.5,131.25,19.62,12.77,-4.12,-5.81
8820,55.25,83.5,1.69,12.1,-3.35,-7.27
8830,65.75,42.56,-31.5,11.9,-1.48,-8.75
8840,77.12,50.06,-27.62,11.29,-1.51,-9.59
8850,62.25,54.38,-18,11.54,-1.56,-9.73
8860,62.25,54.38,-18,11.54,-1.56,-9.73
8870,21.75,47.19,-8.38,11.44,-1.77,-9.72
8880,-37.25,23.31,9.13,11.12,-2.6,-8.42
8890,-33,11.81,18.06,11.25,-4.15,-8.19
8900,-32,-15.88,16.81,11.66,-6.4,-10.24
8910,-32,-15.88,16.81,11.66,-6.4,-10.24
8920,-46.25,-47.63,9.94,11.4,-7.07,-11.6
8930,-76.25,-66,-28.31,11.29,-6.78,-14
8940,-53.25,-39.38,-48.13,10.27,-5.74,-14.29
8950,-18.31,-15.44,-61.44,10.25,-5.42,-14.16
8960,-18.31,-15.44,-61.44,10.25,-5.42,-14.16
8970,8.81,-1.19,-73.75,10.09,-5.3,-13.9
8980,20.12,1.44,-105.37,10.11,-4.45,-12.53
8990,12.19,-7.25,-124.12,9.61,-3.66,-11.99
9000,6.25,-18.5,-142.44,9.18,-2.31,-11.35
9010,6.25,-18.5,-142.44,9.18,-2.31,-11.35
9020,9.25,-29.44,-154.19,8.2,0.24,-10.52
9030,19.37,-40.88,-159.87,7.45,2.09,-10.76
9040,30.12,-53.19,-157.5,7.28,2.75,-11.43
9050,32.31,-63.25,-154.31,7.08,3.1,-11.52
9060,29.5,-70.81,-154.37,7.08,3.1,-11.52
9070,31.12,-74.5,-155.44,6.98,3.33,-11.61
9080,32.56,-78.69,-161,6.05,5,-12.03
9090,29.19,-86.75,-169.5,5.4,6.18,-12.1
9100,27.06,-95.87,-176.31,4.71,7.35,-12.36
9110,38.69,-102.37,-175.12,4.71,7.35,-12.36
9120,55.56,-101.81,-161,4.83,7.85,-13.95
9130,53.25,-97.37,-146.19,4.7,7.93,-14.28
9140,28.12,-97.81,-140.87,3.93,9.1,-13.26
9150,-2.25,-104.81,-138.69,3.36,9.84,-13.26
9160,-21.94,-118.81,-136.94,3.36,9.84,-13.26
9170,-26.62,-135.5,-133.87,2.82,10.69,-13.44
9180,-20.06,-149.94,-127.87,1.96,12.59,-16.26
9190,-10.56,-166.12,-118.44,1.66,12.93,-17.95
9200,-4.44,-172.5,-105.69,1.29,13.04,-19.3
9210,-8.5,-164,-89.94,1.29,13.04,-19.3
9220,-18.94,-144.94,-75.31,0.92,13.3,-19.68
9230,-22.69,-120.19,-67.12,-0.34,14.44,-18.22
9240,-21.31,-94.75,-58.19,-0.76,14.96,-17.38
9250,-15.88,-87.75,-44.38,-0.88,15.06,-18.09
9260,0.44,-93.31,-23.94,-0.88,15.06,-18.09
9270,19.5,-98.25,1.37,-0.21,14.23,-19.58
9280,26.5,-96.06,18.5,0.29,13.73,-21.07
9290,29.31,-78.56,22.12,-0.16,14.11,-20.64
9300,41.44,-52,24.94,-0.87,13.98,-20.09
9310,51.63,-32.56,36,-0.87,13.98,-20.09
9320,47.94,-26.81,51.19,-1.44,14.25,-19.5
9330,33.38,-33.81,73.06,-1.27,13.35,-20.17
9340,16.06,-38.88,95.87,-0.72,12.54,-20.35
9350,3.69,-41.63,116.25,0.11,11.27,-20.73
9360,1.69,-40.56,129.62,0.11,11.27,-20.73
9370,3.12,-36.38,142,0.42,10.23,-21.38
9380,-2.62,-29.94,147.87,0.06,9.43,-21.39
9390,-2.25,-19.25,148.56,-0.14,9.38,-21.06
9400,15.88,-1.44,151.19,-0.35,9.66,-20.53
9410,40.63,16.94,154.44,-0.35,9.66,-20.53
9420,58.38,28.94,164.87,-0.4,9.73,-20.07
9430,55.5,31.75,185.25,0.94,6.63,-20.02
9440,28.31,31.56,208.19,1.41,5.09,-19.44
9450,-9.69,30.5,227.94,2.69,1.74,-17.75
9460,-44.56,29.31,242.25,2.69,1.74,-17.75
9470,-70.81,26.87,247.69,3.35,0.25,-16.73
9480,-87,20.75,240.12,4.65,-1.55,-14.8
9490,-89.19,9.81,219.56,5.14,-1.56,-13.41
9500,-73.62,-0.13,191.94,5.35,-1.39,-13.35
9510,-45.38,-10.75,167.62,5.35,-1.39,-13.35
9520,-18.37,-20.87,151.31,5.55,-1.56,-13.69
9530,-4.37,-29.06,140.87,5.62,-3.03,-14.36
9540,-1.12,-35.81,133.12,5.62,-3.03,-14.36
9550,0.75,-41.06,126,5.78,-3.83,-14.49
9560,-3.12,-47.06,114.12,6.54,-5.45,-14.62
9570,-14.88,-51.44,91.94,6.71,-5.69,-14.13
9580,-25.56,-55.31,62.44,7.09,-5.39,-13.17
9590,-23.37,-61.31,30.87,6.85,-4.59,-12.15
9600,-7.06,-74.19,7.37,5.62,-2.82,-10.8
9610,12.81,-95.44,-3.37,5.47,-2.22,-11.4
9620,9.25,-123.31,-7,5.29,-2.74,-12.48
9630,-18.25,-154.81,-19.94,4.19,-2.14,-14.35
9640,-38,-172.81,-29.31,3.36,-1.67,-14.57
9650,-28.69,-175.62,-36.94,2.83,-1.48,-14.66
9660,0.31,-172.81,-41.44,2.68,-1.91,-15.08
9670,29.56,-170.5,-51.94,2.55,-1.86,-16.63
9680,47,-170.12,-61.44,2.38,-2.08,-17.71
9690,43.38,-170.31,-69.56,2.24,-2.37,-18.49
9700,25,-174.12,-83.62,0.77,-1.7,-18.87
9710,14.19,-183.81,-97.5,-0.04,-1.06,-19.2
9720,21.75,-193.31,-102.37,-0.58,-0.82,-19.94
9730,40.56,-198.25,-103.25,-1.2,-1.07,-21.34
9740,52.38,-196.37,-106.44,-1.51,-1.6,-24.44
9750,49.63,-186.12,-116.06,-1.73,-1.66,-25.61
9760,35.75,-166.56,-129.87,-2.37,-1.46,-26.49
9770,18.19,-143.12,-144.12,-3.74,-0.05,-26.56
9780,18.06,-119.87,-154.12,-4.73,0.39,-26.81
9790,34.88,-93.12,-156.62,-5.5,0.39,-27.42
9800,44.06,-67.62,-155.19,-6.48,0.46,-28.7
9810,31.5,-43.88,-150.25,-7.07,0.57,-28.59
9820,-1.5,-26.06,-142.37,-7.2,0.75,-28.52
9830,-40.56,-9.31,-138.19,-7.32,1.3,-27.84
9840,-63.38,8.31,-134.62,-8.26,2.55,-26.66
9850,-70.56,27.69,-130.25,-8.26,2.99,-26.32
9860,-73.81,48.31,-124.25,-8.43,3.3,-25.94
9870,-74.06,72.25,-117,-8.23,3.36,-24.47
9880,-69.75,97.62,-109.87,-7.94,3.24,-23.62
9890,-65.62,122.37,-106.5,-7.4,3.17,-22.53
9900,-60.13,141.69,-109.62,-7.12,3.25,-21.24
9910,-47.31,155.5,-121.69,-7.19,4.72,-18.27
9920,-25.87,157.87,-130.44,-7.13,5.6,-17.28
9930,-4.69,152.31,-129.25,-7.06,6.36,-16.63
9940,3.25,139.5,-118.19,-6.92,7.23,-16.08
9950,-8.44,123.37,-100.62,-6.46,7.1,-15.86
9960,-34.44,109.56,-80.69,-6,6.86,-15.48
9970,-66.81,99.19,-62.69,-5.6,6.55,-14.94
9980,-96.75,90,-51.13,-4.27,5.54,-13.17
9990,-116,78.44,-54.06,-3.74,5.63,-12.24
10000,-115.81,61.44,-75.12,-3.79,6.69,-11.51
