timestamp,gyrox,gyroy,gyroz,accx,accy,accz
10,10.69,-52.75,-178.12,0,0,0
20,-28.06,-14.75,-170.31,0,0,0
30,-59.56,10.38,-171.19,0,0,0
40,-35.38,23.12,-172.94,-5.1,2.94,-26.09
50,5.81,34.31,-172.37,-5.39,3.59,-26.81
60,22.94,52.94,-164.56,-5.58,4.95,-29.19
70,10.81,85.69,-148.19,-5.55,5.5,-29.07
80,-8.31,124.81,-122.31,-5.3,5.91,-27.72
90,-21.69,164.75,-92.37,-3.97,4.78,-24.42
100,-45.44,188.62,-68.5,-2.96,3.49,-22.45
110,-73.75,189.44,-59.94,-2,2.58,-20.28
120,-76.87,174.25,-66.44,-1.34,2.58,-16.58
130,-45.88,150.44,-78.75,-1.12,3.18,-16.14
140,-1.5,125.69,-92,-1.22,4.02,-16.45
150,35.38,101.81,-100.69,-1.65,5.1,-17.64
160,49.31,85.62,-99.75,-2.16,7.06,-21.57
170,37,83.37,-88.56,-2.16,7.7,-22.86
180,10.88,90.56,-72.06,-2.68,8.24,-23.38
190,-12.38,100.94,-47.19,-2.42,8.97,-23.12
200,-29.19,110.94,-18.56,-1.84,8.75,-22.69
210,-42.31,117.44,4.12,-1.23,8.44,-21.98
220,-48.44,116.62,17.81,-0.71,8.2,-21.2
230,-46.13,109,26.12,0.07,8.07,-20.36
240,-40.31,97.12,32.94,0.42,7.98,-20.68
250,-40.19,84,39.13,0.66,8.07,-21.5
260,-42.56,78.12,49,1.03,8.45,-23.01
270,-41.13,84.94,63.88,1.45,8.42,-23.51
280,-41.25,100.12,82.69,1.77,8.43,-23.6
290,-51.94,115.56,104.94,2.99,7.14,-23.49
300,-79.06,126.06,121.75,3.65,6.36,-22.4
310,-105.62,126.87,132.44,4.45,5.73,-20.86
320,-115.69,119.75,138.31,5.07,5.23,-19.59
330,-120.19,108,143.87,6.57,4.39,-19.09
340,-132.19,97.25,152.25,7.29,3.88,-18.77
350,-145.62,84.94,160,7.66,3.08,-18.39
360,-146.12,74,161.56,8.82,2.08,-17.92
370,-121.56,72.37,157.19,9.5,1.87,-18.09
380,-80.25,86.5,151.06,10.26,1.31,-18.56
390,-51.88,108.81,140.75,10.77,0.78,-18.85
400,-47.81,130.19,130.44,11.63,0.24,-18.06
410,-59,149.69,124.25,11.94,0.1,-16.56
420,-69.06,162.62,120.81,12.07,0.02,-14.66
430,-68.5,164.31,120.12,11.89,-0.3,-11.5
440,-54.75,150.94,115.06,11.95,-0.6,-10.32
450,-30,122.12,108.94,11.97,-0.85,-10.25
460,-11.06,97.25,114.75,12.84,-1.3,-10.76
470,-10.38,78.87,126,13.64,-3,-12.69
480,-10.38,78.87,126,14.1,-3.96,-13.48
490,-64.62,74.75,135.62,14.41,-4.93,-13.79
500,-97.25,90.62,129.12,14.8,-6.5,-12.06
510,-107.81,105.5,113.75,14.84,-7.12,-10.68
520,-87.69,114.62,92.06,14.85,-7.53,-9.5
530,-87.69,114.62,92.06,15.17,-7.76,-8.68
540,-45.44,122.12,67.31,15.04,-7.91,-8.23
550,29.87,132.19,7.69,15.43,-7.76,-7.72
560,37.38,118.31,-11.81,15.23,-7.65,-6.95
570,38.38,112.31,-32.38,15.02,-7.29,-6.26
580,38.38,112.31,-32.38,15.18,-6.48,-5.09
590,36.56,111.25,-52.25,14.74,-6.6,-4.62
600,19.56,52.31,-63.44,14.73,-6.47,-5.06
610,-3.87,18.19,-74.37,14.79,-6.65,-5.67
620,-31.94,-9.81,-95.37,14.78,-6.58,-5.99
630,-31.94,-9.81,-95.37,14.78,-6.58,-5.99
640,-34.31,-21.06,-129.94,13.14,-2.23,-5.63
650,56.5,-6,-156.56,13.09,-1.2,-6.59
660,75.87,10.63,-153.5,12.94,-0.48,-7.26
670,57.06,24.25,-151.81,12.51,0.59,-6.47
680,57.06,24.25,-151.81,12.24,1.49,-5.29
690,16.94,27.06,-153.5,12.24,1.49,-5.29
700,-44.69,-11.88,-153.19,11.35,3.25,-3
710,-49.13,-45.81,-149.94,10.65,4.87,-2.56
720,-43.06,-80.62,-146.06,10.28,5.74,-3.17
730,-43.06,-80.62,-146.06,10.02,6.51,-4.16
740,-31.81,-108.31,-141.19,9.89,7.15,-6.11
750,-9.31,-129.81,-126.31,9.72,7.4,-6.88
760,0.5,-131.69,-125.62,9.52,7.75,-7.63
770,10.69,-128.69,-130.37,9.28,8.31,-8.17
780,10.69,-128.69,-130.37,9.28,8.31,-8.17
790,19.12,-129,-136.37,8.46,9.86,-8.54
800,41.56,-151.19,-144.69,7.07,11.49,-9.68
810,56.25,-164.69,-146.56,5.42,13.44,-11.67
820,68,-176.81,-140.25,4.58,14.47,-13.11
830,68,-176.81,-140.25,4.58,14.47,-13.11
840,76.44,-179.69,-124.56,4.24,15.55,-14.78
850,75.56,-132.81,-63.31,3.9,16.7,-18.92
860,50.44,-98.44,-30,3.99,16.36,-19.12
870,22.19,-72.37,-3.19,4.07,15.86,-18.18
880,22.19,-72.37,-3.19,4.07,15.86,-18.18
890,9.19,-56.94,12.81,4.41,14.92,-16.1
900,16.06,-51.56,20.12,4.46,14.62,-15.18
910,39.94,-53.31,24.37,4.05,14.85,-16.18
920,64.75,-55.63,28.69,3.52,15.06,-16.69
930,79.87,-55.56,37.19,3.52,15.06,-16.69
940,87.12,-54.88,54,3.36,15.12,-17.3
950,84.31,-50.75,77.69,3.81,12.99,-17.92
960,67.06,-48.25,102.06,4.08,11.99,-17.41
970,43.19,-53.13,122.25,4.07,10.81,-17.1
980,26.69,-65.25,137.75,4.07,10.81,-17.1
990,21,-81.19,146.44,4.17,9.2,-17.88
1000,20.75,-93.75,151.94,4.07,7.95,-19.27
1010,27.06,-100.94,160.81,4.19,6.88,-20.12
1020,37.75,-99.81,172.69,5.23,4.67,-21.48
1030,44.44,-86.12,180.5,5.23,4.67,-21.48
1040,42.75,-60.94,183.06,5.68,3.4,-21.39
1050,33,-36.81,181.06,6.55,0.39,-18.06
1060,23.56,-21.94,176.31,6.77,-0.53,-17.04
1070,20.12,-20.37,171.56,7.18,-1.35,-16.83
1080,20.19,-32.63,165.25,7.18,-1.35,-16.83
1090,16.25,-47.81,156.44,7.7,-2.32,-17
1100,9.75,-59.63,146.06,7.85,-3.19,-16.86
1110,7.37,-66.12,137.19,7.61,-3.67,-16.69
1120,9.19,-68.69,127.44,7.37,-4.31,-16.47
1130,9.63,-75.62,118.19,7.37,-4.31,-16.47
1140,6.69,-86.87,109.56,7.25,-4.62,-16.61
1150,-0.13,-101.5,104,7.59,-6.2,-17.98
1160,-8.56,-114.25,95.12,7.49,-6.51,-18.16
1170,-16.31,-119.19,79.56,7.24,-6.61,-18.36
1180,-20.69,-119.19,59.06,7.24,-6.61,-18.36
1190,-21.06,-115.37,36.56,6.9,-6.49,-18.45
1200,-19.37,-112.81,17.19,5.59,-5.52,-18.4
1210,-14.5,-114.44,0.88,5.11,-5.18,-18.5
1220,-5.75,-116.12,-13.31,4.81,-4.82,-19.08
1230,8.94,-116.06,-24.69,4.81,-4.82,-19.08
1240,24.87,-110.75,-34.75,4.8,-4.84,-19.57
1250,31.37,-102.25,-45.38,4.66,-5.05,-19.61
1260,29.25,-98.19,-61.31,3.68,-4.02,-19.03
1270,31.56,-99,-81.37,2.73,-3.22,-19.35
1280,43.44,-103.44,-98.12,2.73,-3.22,-19.35
1290,53.81,-111.25,-105.87,1.91,-2.51,-20.12
1300,50.75,-120.69,-103.5,0.88,-2.11,-23.32
1310,31.56,-131.19,-94.56,0.85,-2.52,-24.05
1320,3.94,-137.69,-87.25,0.58,-2.9,-24.91
1330,-16.81,-138.19,-88.19,0.58,-2.9,-24.91
1340,-22.44,-132.94,-98.69,0.13,-2.62,-25.35
1350,-13.56,-119.87,-112.94,-1.27,-1.8,-26.49
1360,-0.5,-101.81,-124.87,-2.15,-1.12,-27.71
1370,8,-81.44,-133.37,-2.8,-0.94,-27.92
1380,8,-59.38,-140.37,-2.8,-0.94,-27.92
1390,6.31,-38.75,-150.69,-3.42,-0.53,-27.79
1400,12.56,-19.56,-162.69,-5.31,2.23,-27.88
1410,24.06,0.81,-168.69,-5.9,3.13,-27.99
1420,26.87,19.69,-165.37,-6.18,3.69,-27.9
1430,17,37.63,-151.19,-6.18,3.69,-27.9
1440,2.75,58.19,-128.94,-6.14,3.84,-26.5
1450,-9.5,77.5,-103.12,-5.45,3.13,-25.9
1460,-27.87,94.12,-82.94,-4.7,2.48,-25.26
1470,-49.38,110.87,-69.25,-3.24,1.21,-22.33
1480,-58.56,127.56,-63.06,-2.61,0.62,-20.92
1490,-57.88,139.56,-64.94,-1.93,0.41,-19.54
1500,-51.44,143.75,-74.5,-1.32,0.46,-18.38
1510,-35,145.81,-91,-1.11,1.69,-16.06
1520,-11.19,141.5,-106.56,-1.23,2.73,-15.41
1530,6.56,128.12,-115.19,-1.43,3.88,-15.27
1540,8.38,106.37,-113.62,-2.14,6.17,-15.38
1550,0.75,77.75,-103.12,-2.38,7.09,-15.76
1560,-4.75,51.63,-85.69,-2.57,7.78,-16.56
1570,-8.13,33.56,-64.06,-2.47,8.04,-18.85
1580,-13.69,24.12,-47.25,-2.44,8.15,-19.67
1590,-14.13,22.62,-37.94,-2.36,8.4,-20.4
1600,-6.19,29.19,-31.31,-2.17,8.62,-21.21
1610,-1.12,38.88,-26.81,-2.12,9.38,-22.52
1620,-4.56,47.44,-22.5,-2.43,9.96,-22.48
1630,-3.75,51.19,-13,-2.57,10.54,-22.33
1640,6.75,52.56,5.25,-2.47,10.83,-23.66
1650,13.19,56.5,30.37,-2.11,10.38,-24.64
1660,2.81,64.06,56.13,-1.67,9.72,-25.22
1670,-15.13,75.62,79.44,-1.23,8.94,-25.33
1680,-28.87,88.44,98.19,-0.1,6.9,-24.88
1690,-34.69,100,109.94,0.61,6.02,-24.64
1700,-35.56,112.94,116.12,1.26,5.19,-24.42
1710,-36.13,128.25,119.69,2.56,3.91,-23.38
1720,-37.63,143.12,122.12,3.34,3.19,-22.48
1730,-40.69,154.19,120.56,4.01,2.68,-21.35
1740,-40.31,158,114.87,4.59,2.46,-20.12
1750,-34.69,155.69,111.25,5.39,2.09,-19
1760,-32.19,150,110.75,5.87,1.76,-18.68
1770,-33.25,142,112.37,6.36,1.57,-18.39
1780,-30.69,140.62,115.25,7.39,1.11,-18.22
1790,-26.06,148.94,118.31,7.89,0.76,-17.77
1800,-24.94,161.56,121.87,8.43,0.31,-16.86
1810,-26.31,167.37,126.25,9.38,-0.85,-15.03
1820,-26,160.94,130.44,9.96,-1.71,-14.58
1830,-21.19,149.19,133.37,10.51,-2.7,-14.52
1840,-15.63,143.87,135.44,11.36,-3.81,-14.64
1850,-18.56,145.87,131.87,12.76,-5.94,-14.51
1860,-29.25,155.31,119.5,13.13,-6.65,-13.44
1870,-35.88,162.94,102.44,13.17,-7.25,-12.1
1880,-30.94,161.44,79.56,13.39,-7.38,-10.41
1890,-15.56,153.69,59,13.78,-7.38,-9.94
1900,0.81,143.06,50.75,14.3,-7.78,-9.75
1910,6.87,135,46.44,14.71,-8.34,-9.68
1920,-1.81,127.06,42.06,15.21,-9.67,-9.2
1930,-19.87,117.87,34.44,15.49,-10.32,-8.71
1940,-39.56,107.87,19.56,15.72,-10.78,-8.1
1950,-54.75,93.81,-3.62,15.46,-10.92,-6.9
1960,-60.56,70.56,-32.63,15.39,-10.45,-6.41
1970,-50.75,44.81,-64.87,15.2,-9.68,-6.38
1980,-25.69,27.31,-95,15.07,-8.75,-6.71
1990,4.44,25.62,-121.44,14.49,-6.47,-7.71
2000,28.5,33.63,-143.56,14.1,-5.35,-7.01
2010,55.88,42.75,-166.12,14.01,-3.81,-6.24
2020,81.87,48,-177.19,13.31,-1.58,-6.01
2030,89.06,46,-181,12.87,-0.51,-5.92
2040,72.69,35.63,-180.19,12.48,0.37,-5.7
2050,39.63,19,-176.94,11.77,2.39,-5.05
2060,0.06,-1.94,-168.62,11.41,3.49,-4.53
2070,-33.63,-26.37,-155.44,11.22,4.36,-4.04
2080,-51.31,-51.13,-138.81,10.92,4.99,-3.69
2090,-50.44,-75.44,-123.37,10.54,5.44,-3.65
2100,-36.94,-99.81,-113.75,10.16,5.64,-4.17
2110,-18.56,-124,-111.19,9.75,5.96,-5.01
2120,1.31,-144.5,-111.44,9.12,6.63,-7.13
2130,20.31,-158.31,-112.19,8.63,7.03,-8.45
2140,34.63,-164.25,-112.94,8.1,7.5,-9.77
2150,42.75,-164.81,-111.06,7.76,8.02,-11.03
2160,44.06,-160.5,-106.5,7.36,8.73,-12.99
2170,40.63,-154.44,-102.31,6.9,9.06,-13.72
2180,38.25,-148.87,-100.62,6.52,9.53,-14.32
2190,41.63,-142,-100.37,5.77,10.79,-15.23
2200,49.88,-130.94,-97.12,5.22,11.55,-15.65
2210,59.44,-119.94,-87.37,4.82,12.14,-16.16
2220,64.62,-111.56,-73.44,4.46,12.6,-16.65
2230,63.19,-107.44,-57.06,3.76,13.06,-17.15
2240,63.56,-108.19,-39.69,3.44,12.92,-17.61
2250,70.87,-108.37,-26.81,2.9,12.84,-18.21
2260,85.37,-108.5,-18.75,1.37,13.32,-19.25
2270,109,-109.25,-9,0.88,13.58,-20.5
2280,129.69,-105.31,11.06,0.54,13.37,-22.24
2290,129.19,-95.87,37.81,0.36,12.28,-24.69
2300,113.37,-78.69,64.75,0.29,11.54,-25.19
2310,98.5,-52.56,91,0.44,10.6,-25.51
2320,82.5,-24.75,114.62,0.28,9.9,-25.7
2330,60.69,4.62,140.87,1.9,6.97,-24.84
2340,35.63,35.31,152.31,2.32,6.22,-22.29
2350,35.38,57.06,158.06,3.39,5.46,-20.32
2360,54.81,72.5,167.31,4.81,3.07,-18.52
2370,51.94,71.94,171.62,5.53,2.16,-17.4
2380,35.44,61.56,172.44,5.75,1.58,-15.53
2390,38.06,43.19,177.56,5.96,0.64,-14.28
2400,54.06,18,182.87,7,-1.68,-14.5
2410,67.87,-1,181,7.38,-2.61,-14.9
2420,73.5,-12.31,176.69,7.52,-3.59,-15.23
2430,68.44,-19.12,170.12,7.74,-4.68,-15.1
2440,59.56,-23.75,164.56,7.66,-5.22,-14.96
2450,47.13,-34.5,164.25,7.73,-5.83,-14.98
2460,29.31,-48.13,166.94,7.64,-6.64,-14.79
2470,17,-66.81,169.44,8.3,-8.8,-15.06
2480,17.12,-80.5,164.37,8.35,-9.98,-15.38
2490,28.5,-84.44,147.94,8.51,-10.86,-15.63
2500,47.56,-77.94,120.12,8.84,-10.81,-15.78
2510,64.31,-65.56,89.31,8.52,-10.29,-15.93
2520,61.13,-61.13,66.37,8,-9.57,-15.61
2530,47.88,-66.19,53.25,7.1,-8.38,-13.85
2540,48.69,-79.44,50.19,6.91,-8.58,-14.14
2550,57.56,-93.37,50.75,6.72,-8.91,-14.6
2560,61.88,-102.81,49.94,6.35,-9.19,-15.01
2570,57.69,-110.44,50.81,6.44,-10.27,-16.27
2580,41.5,-116,48.63,6.33,-10.73,-16.54
2590,19.62,-119.37,43.06,6.05,-11.23,-16.95
2600,-7.75,-122.56,31.81,5.67,-11.19,-16.6
2610,-29,-124.25,17.12,4.78,-10.92,-15.84
2620,-29.31,-130.31,5.31,3.96,-10.73,-15.37
2630,-13.56,-146.19,-3.19,3.12,-10.79,-15.85
2640,7.19,-163.25,-9.69,2.66,-11.13,-19.06
2650,22.87,-161.81,-18.12,2.61,-11.24,-20.34
2660,26.56,-144.25,-27.44,2.78,-11.57,-21.16
2670,10.19,-123.94,-42.38,2.54,-12.14,-20.84
2680,-17.19,-112.44,-66.19,1.71,-11.66,-19.82
2690,-27.25,-114,-92.25,0.86,-10.65,-19.23
2700,-10.31,-121,-111.81,-0.09,-9.65,-19.5
2710,10.75,-126,-122.62,-1.31,-7.89,-22.3
2720,8,-123.44,-121.06,-1.82,-7.61,-23.18
2730,-19.94,-120.56,-113.31,-2.28,-7.87,-23.45
2740,-47.44,-123.5,-112.69,-3.17,-8.57,-23.97
2750,-55.44,-130.81,-121.81,-4.01,-8.74,-25.18
2760,-49,-137.12,-143.56,-4.66,-8.13,-26.66
2770,-32.5,-127.56,-170,-6.6,-5.15,-29.63
2780,-11.19,-98.25,-185.12,-7.55,-3.94,-31.11
2790,-5.81,-56.06,-186.69,-8.39,-2.93,-31.82
2800,-18.5,-12.19,-174.37,-8.46,-2.25,-32.46
2810,-43.5,33.5,-155.12,-7.96,-2.02,-31.82
2820,-64.44,81.19,-140.69,-7.67,-1.73,-30.2
2830,-62.25,128.06,-132,-7.05,-1.41,-28.23
2840,-42,165.44,-124.31,-5.96,-1.47,-25.11
2850,-31.31,183.25,-119.87,-5.19,-1.25,-23.95
2860,-38.75,184.56,-115.75,-4.59,-0.79,-23.07
2870,-57.25,178.87,-109.94,-4.25,-0.16,-22.07
2880,-74.5,167.37,-100,-3.58,0.94,-20.58
2890,-84.56,153.12,-88.81,-3.3,1.48,-20.28
2900,-86.5,138.5,-81.37,-3.12,2.3,-20.21
2910,-77.87,129.5,-76.56,-3.04,4.27,-20.69
2920,-62.06,130.06,-66.69,-3.07,5.09,-20.81
2930,-49.38,137.62,-51.81,-2.98,5.74,-20.52
2940,-41.81,145.19,-31.12,-2.63,6.19,-20.11
2950,-39.81,149.5,-7.37,-1.78,6.13,-19.49
2960,-46.63,149.5,16.37,-1.22,6.14,-19.23
2970,-64.44,140.12,42.69,-0.74,5.92,-19.15
2980,-88.87,126.44,66.12,0.54,5.34,-18.25
2990,-104.5,108.12,84.31,1.02,5.21,-17.82
3000,-95,85.31,97.94,2.11,4.9,-18.99
3010,-73.31,75.44,108.06,3.19,4.3,-22.66
3020,-67.5,84.62,119.19,3.62,3.71,-23.51
3030,-85.62,104.37,135,3.98,3.12,-23.15
3040,-113.87,123,152.25,4.33,2.41,-21.93
3050,-132.69,133.87,171.69,5.13,0.28,-19.07
3060,-133.56,136.19,190.12,5.97,-1.07,-18.3
3070,-129.37,131.44,203.44,6.87,-2.5,-17.75
3080,-130.19,115.37,210.37,8.5,-5.22,-17.72
3090,-130.19,115.37,210.37,9.21,-6.24,-18.37
3100,-134.94,88.94,208.94,9.96,-6.89,-19.3
3110,-128.31,56.88,177.87,10.32,-7.39,-20.45
3120,-115.19,71.87,153.12,11.19,-7.89,-21.74
3130,-100.19,106.31,126.37,11.68,-8.02,-21.48
3140,-84.56,152.56,95.94,11.7,-7.79,-20.36
3150,-68.12,200.44,66.81,11.72,-6.33,-15.72
3160,-46,236.19,45.69,11.83,-5.67,-13.45
3170,-26.87,250.81,33.38,12.41,-5.25,-11.55
3180,-19.06,247.69,27.25,13.03,-5.01,-9.96
3190,-19.06,247.69,27.25,13.85,-5.13,-7.7
3200,-21.44,234.94,24,14.33,-5.37,-6.67
3210,-40.31,184.5,11.88,14.91,-5.58,-5.98
3220,-48.69,154.31,-2.06,15.54,-5.31,-5.54
3230,-47.81,138.37,-24.06,15.63,-4.72,-4.22
3240,-47.81,138.37,-24.06,14.28,-5.07,-3.87
3250,-33.5,125.44,-37.56,15.37,-3.84,-3.28
3260,9.13,105.31,-78.44,14.56,-3.49,-2.95
3270,31.25,90.06,-85.37,14.78,-3.48,-2.79
3280,41.25,61.56,-90.94,14.48,-3.54,-3.21
3290,41.25,61.56,-90.94,14.24,-3.27,-3.91
3300,30.5,27.81,-100.5,13.56,-2.33,-3.89
3310,1.19,-29.25,-134.94,12.96,-1.03,-3.83
3320,18.69,-45,-138.56,12.33,0.37,-5.15
3330,47,-49.75,-128.31,12.53,0.4,-6.36
3340,47,-49.75,-128.31,12.53,0.4,-6.36
3350,55.75,-45.94,-117.12,12.35,0.34,-7.34
3360,-10.31,-45.69,-119.31,11.82,1.28,-5.64
3370,-33.88,-53.38,-123.69,11.37,1.77,-4.78
3380,-27.06,-63.94,-126.62,10.98,2.14,-4.44
3390,-27.06,-63.94,-126.62,10.98,2.14,-4.44
3400,-4.56,-76.19,-129.25,10.3,2.67,-4.85
3410,26.31,-115.62,-141.12,9.11,3.6,-5.92
3420,31.5,-142.94,-151.87,8.4,4.32,-6.59
3430,38.88,-168.5,-161.44,7.23,5.98,-8.4
3440,38.88,-168.5,-161.44,7.23,5.98,-8.4
3450,51,-187.31,-165.31,6.63,6.8,-9.83
3460,70.06,-196.25,-163.94,5.19,9.42,-13.05
3470,71.5,-192.75,-157.5,4.47,10.28,-13.93
3480,67.56,-191.37,-143.37,3.9,10.95,-14.78
3490,67.56,-191.37,-143.37,3.9,10.95,-14.78
3500,61.25,-190.12,-123,3.11,11.41,-16.5
3510,51.69,-181.87,-87.31,2.44,11.33,-18.68
3520,44.81,-173,-82.12,1.85,11.58,-19.38
3530,41,-161.12,-82.25,0.77,12.93,-20.01
3540,41,-161.12,-82.25,0.77,12.93,-20.01
3550,45.13,-148.44,-81.94,-0.01,13.94,-20.38
3560,66.44,-120.62,-58.13,-1.6,16.18,-21.6
3570,66.44,-120.62,-58.13,-1.8,16.22,-22.09
3580,75.12,-106.56,-30,-2.05,15.85,-22.46
3590,73,-92.19,2.31,-2.05,15.85,-22.46
3600,62.81,-80.56,33,-2.19,15.38,-22.57
3610,52.19,-71.31,60,-2.16,13.49,-22.55
3620,45.88,-61.31,82.94,-2.02,12.75,-22.31
3630,47.31,-48.31,101.87,-1.45,11.12,-21.98
3640,54.06,-33.13,119.44,-1.45,11.12,-21.98
3650,56.69,-20.06,136.87,-1.19,9.96,-21.5
3660,51,-13.25,152.56,-0.17,7.73,-21.05
3670,44,-11.31,167.31,0.34,6.15,-19.99
3680,32.81,-11.31,174.75,0.62,5.58,-19.58
3690,28.5,-10.63,177.12,0.62,5.58,-19.58
3700,35.75,-6.75,181.06,0.82,4.91,-19.38
3710,41.06,-1.69,187.69,1.43,2.78,-18.48
3720,38.63,-2.25,197.87,1.73,1.7,-18.21
3730,32.44,-5.31,210.62,2.47,-0.41,-17.84
3740,23.81,-11.06,223.62,2.47,-0.41,-17.84
3750,14.13,-19.12,233,3.08,-1.58,-17.77
3760,5.75,-25.31,235,4.06,-3.48,-17.52
3770,-1.25,-27.31,230,4.77,-4.83,-16.69
3780,-6.19,-27.31,220.5,5.04,-5.45,-16.35
3790,-8.56,-27.56,207.87,5.04,-5.45,-16.35
3800,-11.5,-32,192.69,5.16,-6.01,-16.01
3810,-18.31,-43.69,174.5,5.19,-6.75,-15.09
3820,-20.19,-61.69,155.19,5.17,-7.09,-15.32
3830,-11.25,-79.75,140.06,5.18,-7.61,-15.97
3840,2.12,-96.25,127.75,5.18,-7.61,-15.97
3850,9.88,-108.5,111.94,5.82,-8.09,-17.93
3860,3.37,-114.31,93.19,5.23,-8.34,-18.4
3870,-20,-116.69,72.19,4.72,-7.68,-17.57
3880,-28.75,-116.12,45.75,4.36,-7.53,-17.86
3890,-6,-112.25,23.56,4.36,-7.53,-17.86
3900,23.37,-104.75,1.94,4.13,-7.19,-18.39
3910,35.81,-100.44,-16.44,3.3,-5.79,-18.6
3920,29.62,-102.19,-29,2.82,-5.65,-18.62
3930,17.56,-107.94,-36.19,2.35,-5.7,-18.69
3940,8.94,-115.56,-40.38,2.35,-5.7,-18.69
3950,7.06,-125.37,-44.75,1.77,-5.87,-19.6
3960,11.56,-134.87,-51.25,0.96,-6.23,-21.01
3970,18.25,-138.94,-58.38,0.95,-6.67,-22.26
3980,21.06,-140.25,-66.62,0.6,-6.85,-22.55
3990,18.56,-136.87,-77.75,0.6,-6.85,-22.55
4000,14.5,-132.12,-95.44,-0.13,-6.76,-22.54
4010,21.37,-130.69,-120.87,-2.36,-4.83,-24.12
4020,47.06,-127.87,-144.87,-2.99,-4.41,-25.6
4030,74.75,-120.75,-160.19,-3.34,-4.08,-26.92
4040,78.19,-110,-164.37,-3.34,-4.08,-26.92
4050,47.81,-94,-161.87,-4.38,-3.53,-27.37
4060,1.12,-77.44,-159.87,-5.6,-2.93,-26.47
4070,-31.31,-65.31,-160.25,-6.29,-2.58,-26.54
4080,-41.63,-56.13,-164,-7.32,-1.3,-27.46
4090,-39.25,-48.88,-171.87,-7.32,-1.3,-27.46
4100,-31.75,-38.13,-179.44,-8.08,-0.21,-28.04
4110,-21.75,-17.12,-186.75,-8.66,1.29,-28.56
4120,-13.06,16.31,-177.56,-9,3.33,-28.79
4130,-9.13,63.13,-153.37,-8.69,3.81,-28.15
4140,-17.75,110.62,-118.25,-7.81,3.26,-27.32
4150,-60.06,140.44,-86,-7.26,2.57,-25.26
4160,-109.81,142.31,-66.56,-6.52,2.09,-20.43
4170,-114.81,128.69,-53.75,-5.62,1.66,-19.57
4180,-79.19,112.81,-49.25,-4.75,1,-19.65
4190,-35.38,103.06,-58.13,-3.79,0.46,-20.95
4200,-1.75,103.06,-73.62,-3.73,0.65,-21.72
4210,8.31,110.5,-85.87,-3.6,1.07,-21.94
4220,-4.87,120.87,-92.69,-3.56,2.38,-20.5
4230,-18.87,134.81,-93.31,-3.24,2.84,-19.63
4240,-29.62,148.56,-85.5,-2.76,2.98,-18.66
4250,-44,155.12,-72.06,-2.26,2.87,-17.62
4260,-59.94,151.62,-59.75,-1.25,2.48,-15.36
4270,-68.44,138.12,-53.69,-0.67,2.56,-14.43
4280,-64.25,116,-54.13,-0.36,2.76,-13.87
4290,-48.5,87,-60.81,-0.88,4.05,-14.06
4300,-22.56,53.06,-70.19,-1.48,5.02,-15.12
4310,10.19,19,-77.5,-2.35,5.85,-17.08
4320,41.44,-10.31,-82.25,-3.28,6.61,-19.7
4330,61.31,-25.37,-81.62,-4.85,8.18,-24.91
4340,63.75,-22.31,-73,-5.39,9.04,-26.92
4350,49.19,0.19,-52.69,-5.88,9.76,-28.13
4360,23.06,35.94,-23.12,-6.47,10.68,-27.74
4370,1.81,73.75,14.31,-6.39,10.41,-27.02
4380,-6.25,103.81,57.13,-5.68,9.49,-26.47
4390,-12.44,122.87,96.62,-4.61,7.98,-26.35
4400,-27.62,133.19,121.81,-2.62,5.77,-25.59
4410,-39.44,141.94,131.25,-2.02,5.37,-24.81
4420,-30.87,151.06,130.37,-1.49,5.34,-24.29
4430,-2.69,161.56,127.69,-1.03,5.21,-25.19
4440,22.19,175.44,131.69,-0.47,4.8,-25.81
4450,18.94,194.44,143.75,-0.21,4.18,-25.35
4460,-9.56,211.56,164.75,0.67,2.1,-23.86
4470,-54.88,222.81,187.87,1.35,1.04,-22.26
4480,-99.69,227.69,208.37,2.21,0.19,-20.43
4490,-125.06,229.75,222.69,3.05,-0.4,-18.62
4500,-125.12,230.12,231.87,4.95,-1.52,-16.29
4510,-109.25,232.94,236.94,5.82,-1.99,-15.19
4520,-95.25,240.37,240.12,6.85,-2.48,-13.94
4530,-94.69,243.31,248.44,7.67,-3.94,-11.43
4540,-106.81,241.44,261.44,7.99,-4.9,-9.76
4550,-118.62,229.25,281.37,8.82,-6.19,-8.62
4560,-121.69,193.25,306.44,9.45,-7.76,-8.79
4570,-120.37,149.44,323.81,11.66,-10.95,-10.73
4580,-125.12,115.5,325.56,12.08,-12.79,-11.96
4590,-136.5,112.37,305.12,14.82,-14.21,-11.7
4600,-141.69,118.06,280.25,14.72,-16.55,-10.63
4610,-124.19,132.25,238.81,15.2,-17.21,-10.45
4620,-97.37,155.87,190.06,14.36,-17.71,-9.46
4630,-69.19,179.19,143.87,14.56,-18.06,-7.66
4640,-29.19,182.81,99.31,13.98,-18.03,-5.65
4650,11.44,160.12,62.5,14.3,-18.27,-5.57
4660,37.56,114.37,21.94,15.2,-18.23,-6.31
4670,39.31,64.81,-27.5,14.81,-16.49,-8.23
4680,26.44,33.5,-73.12,14.72,-14.94,-8.48
4690,31.5,31,-110.56,14.72,-13.24,-8.37
4700,61.56,47.06,-134.87,14.01,-10.78,-7.83
4710,97.81,66.37,-148.81,13.96,-9.65,-7.43
4720,120.69,81.25,-158.5,13.7,-8.72,-6.96
4730,118.44,87.25,-159.62,13.42,-8.07,-6.34
4740,90.75,80.12,-153.75,13.47,-7.35,-4.84
4750,52,63.25,-143.37,13.58,-7.27,-4.11
4760,16.56,41,-135.31,13.52,-7.17,-3.45
4770,-3.81,18.25,-137.62,13.27,-6.62,-2.72
4780,-3.94,-2.25,-150.25,12.83,-5.87,-2.79
4790,11,-22.19,-166.5,12.3,-4.99,-3.2
4800,31.81,-40.88,-177.56,12.02,-4.17,-3.88
4810,49.75,-56.19,-180.56,11.55,-3.18,-5.61
4820,58.38,-67.44,-179.5,11.49,-2.77,-6.36
4830,56.81,-71.06,-180.81,11.33,-2.23,-6.84
4840,49.75,-67.75,-186.06,11.02,-1.1,-6.55
4850,43.06,-60.31,-193.94,10.82,-0.29,-6.07
4860,41,-53.69,-206.44,10.45,0.75,-5.49
4870,42.38,-54.56,-220.87,9.75,2.04,-5.06
4880,43.63,-69.37,-227.25,8.13,4.26,-4.86
4890,44.38,-95.25,-223.87,7.35,5.46,-5.41
4900,44.44,-124.19,-214.69,6.7,6.67,-6.27
4910,42.81,-147.19,-198.25,6.34,8.26,-8.2
4920,37.69,-158.62,-175.56,6.21,8.82,-9.08
4930,27.12,-160.69,-152.31,6.19,9.28,-9.78
4940,12.5,-161,-129.44,6.4,9.25,-10.52
4950,-4.19,-159.75,-110.31,6.03,9.23,-10.78
4960,-21.37,-165.75,-100.56,5.8,9.35,-10.9
4970,-28.87,-179.25,-99.56,5.24,9.52,-11.27
4980,-14.5,-192.5,-106.19,3.78,10.36,-12.48
4990,21.25,-201.44,-119.12,2.83,11.42,-13.72
5000,68.37,-209.62,-133.69,1.96,12.73,-16.05
5010,101.69,-214.62,-135.37,1.19,15.18,-20.74
5020,106.37,-209.19,-118.94,1.08,16.08,-22.68
5030,89.87,-185.56,-88.62,0.66,16.68,-23.89
5040,63.06,-148.56,-53.69,0.3,17.09,-24.17
5050,37.63,-108,-16.12,-0.36,17.19,-22.78
5060,21,-73.06,19.69,-0.59,16.89,-21.58
5070,17.06,-51.63,53.25,-0.24,16.18,-20.45
5080,26.94,-43.44,83.56,1.81,13.41,-20.68
5090,34.56,-39.38,104.62,2.6,12.18,-20.63
5100,36.75,-36.88,115.75,3.17,11.13,-20.71
5110,43.5,-34.81,120.81,3.13,10.12,-20.99
5120,53.25,-35.06,120.12,2.79,9.5,-22.51
5130,63.06,-31.12,114.44,2.37,9.72,-23.15
5140,75.19,-15.63,111.62,1.82,10.15,-23.5
5150,85.25,8.25,119,0.82,10.55,-23.28
5160,79.87,28.19,139.69,0.75,9.95,-22.68
5170,58.69,36.38,173.62,1.31,8.44,-22.24
5180,28.56,36.94,214.19,2.52,4.06,-21.04
5190,-2.5,35.06,251.25,3.29,1.76,-20.43
5200,-27.19,30.81,279.25,4.07,-0.26,-19.75
5210,-41.56,27.44,295.81,4.85,-2.13,-19.08
5220,-44.94,25.19,298.87,6.18,-4.92,-17.86
5230,-40.5,23.94,285.94,6.84,-5.81,-17.25
5240,-30.56,20.56,260.69,7.43,-6.35,-16.65
5250,-14.56,16,232.75,8.32,-7.11,-16.04
5260,3.81,12.25,210.56,8.43,-7.65,-16.06
5270,11.38,7.56,192.44,8.61,-8.1,-16.02
5280,0.13,0.31,176.31,8.86,-8.41,-15.8
5290,-23.69,-9.38,161,9.16,-8.73,-14.84
5300,-47.44,-18.56,144.56,9.12,-8.63,-14.2
5310,-60.19,-26.56,122.19,9.9,-7.87,-13.47
5320,-60.69,-34.81,102.5,9.56,-7.16,-12.72
5330,-61.13,-47.56,87.75,9.19,-6.37,-11.95
5340,-58.69,-63.75,71.25,8.9,-5.88,-11.58
5350,-41.56,-85.19,66.19,8.83,-6.12,-12.31
5360,-27.25,-104.5,63.81,8.52,-7.22,-14.26
5370,-29.75,-122,55.5,8.1,-7.46,-14.92
5380,-31,-136.5,42.63,7.9,-7.43,-15.59
5390,-18.25,-137.75,27.62,7,-7.47,-17.02
5400,-7.94,-128.5,15.31,6.73,-7.5,-17.3
5410,-18.62,-126.87,4.44,6.36,-7.49,-17.3
5420,-40.63,-134.87,-4.44,6.1,-7.56,-16.88
5430,-50,-144.31,-13.75,5.9,-7.78,-16.99
5440,-39.13,-153.94,-24.94,5.74,-8.02,-17.48
5450,-15.13,-160.5,-40.81,5.33,-8.25,-18.28
5460,7.19,-161.69,-59.69,4.62,-8.4,-20.03
5470,15.44,-161.81,-81.44,3.99,-8.1,-20.65
5480,12.38,-164.31,-106.37,3.2,-7.36,-20.87
5490,16.69,-165.5,-129.87,1.59,-5.77,-21.64
5500,35.19,-166.25,-146.25,0.79,-5.41,-22.63
5510,59.06,-167.5,-153.69,0.25,-5.4,-23.89
5520,71.56,-163.94,-156.19,-0.22,-5.61,-25.13
5530,62.25,-155.25,-158.31,-0.77,-5.82,-26.72
5540,33.13,-142.12,-161.44,-1.35,-5.84,-26.82
5550,-5.06,-126.94,-167.56,-1.93,-5.66,-26.47
5560,-35,-114.81,-177.75,-3.51,-4.91,-25.69
5570,-42.81,-105.75,-195.94,-4.74,-3.9,-25.56
5580,-27.69,-101.25,-221,-5.97,-2.7,-25.94
5590,1.25,-100.81,-245.5,-7.21,-1.52,-26.91
5600,27,-98.69,-265.87,-9.38,1.53,-29.72
5610,36.44,-87.25,-273.5,-10.2,2.8,-31.01
5620,24.5,-65.19,-260.56,-10.53,3.62,-31.81
5630,0.5,-31.5,-232.5,-10.38,4.17,-32.09
5640,-25.06,16.31,-197.12,-10.13,3.86,-31.3
5650,-45.5,66.75,-166.37,-9.88,3.58,-30.08
5660,-53.31,112.81,-146.25,-8.57,3.16,-26.89
5670,-47.75,151.87,-128.75,-7.52,2.45,-25.09
5680,-42.94,178.81,-118.44,-6.87,2.15,-23.31
5690,-33.13,192.81,-118.06,-5.96,2.2,-22.18
5700,-17.56,200.06,-118.44,-4.88,2.75,-20.81
5710,-11.31,205.56,-116.75,-4.06,3.24,-20.06
5720,-24.06,207.56,-107.12,-3.14,3.55,-19.13
5730,-49.63,206.19,-88.75,-1.59,3.44,-16.47
5740,-74.06,204.44,-68.06,-0.64,3.16,-15.06
5750,-87.12,200.75,-49.25,0.41,2.77,-13.8
5760,-88.06,191.62,-36.06,1.45,2.36,-12.74
5770,-80.75,175.37,-32.13,2.78,1.95,-11.19
5780,-64.94,151.25,-40.44,3.4,2.54,-10.61
5790,-35.13,127.37,-57.56,3.64,3.5,-10.24
5800,7.12,103.87,-73,2.55,5.42,-11.73
5810,44.5,70.44,-81.31,2,6.5,-13.63
5820,62.63,35.44,-83.12,1.27,7.5,-15.68
5830,57.13,4.81,-74.81,0.33,8.32,-17.56
5840,35.25,-26.25,-58.88,-1.69,9.75,-21.15
5850,35.25,-26.25,-58.88,-2.43,10.13,-23.3
5860,15.81,-65.81,-8.69,-2.81,10.22,-25.56
5870,22.25,-50.06,25.31,-3.37,9.16,-29.03
5880,19.44,-19.56,59.63,-3.53,8.48,-29.83
5890,9.94,16.12,89,-3.19,7.7,-30.26
5900,9.94,16.12,89,-1.74,5.72,-30.32
5910,6.75,60.81,114.94,-1,4.3,-29.1
5920,-7.87,171,154.87,-0.2,3.11,-26.57
5930,-36.13,205.44,166.56,0.61,2.38,-23.39
5940,-51.44,216.19,173.06,2.06,1.33,-19.25
5950,-51.44,216.19,173.06,3.16,0.96,-18.18
5960,-43.06,209.31,176.06,4.47,0.87,-17.53
5970,18.87,189,163.31,6.85,0.39,-18.5
5980,58.5,189.31,156.69,7.59,-0.07,-19.28
5990,68.69,204.56,152.5,7.73,-0.44,-18.78
6000,68.69,204.56,152.5,7.61,-0.84,-17.16
6010,38.75,226.94,156.44,7.18,-2.8,-13.97
6020,-46.31,233.19,204.44,7.6,-4.75,-13.2
6030,-79.19,204.87,239.62,8.62,-6.93,-13.39
6040,-107.5,169.81,266.69,11.09,-10.83,-14.57
6050,-107.5,169.81,266.69,12.52,-12.76,-14.68
6060,-129.19,144.25,279.94,13.65,-14.32,-14.51
6070,-101.81,153.37,246.19,14.74,-15.46,-14.15
6080,-64.75,180.56,197.5,16.32,-15.81,-12.11
6090,-28,213.69,137.62,16.31,-14.93,-10.1
6100,-28,213.69,137.62,16.31,-14.93,-10.1
6110,5.37,241.44,77.06,16.32,-13.54,-7.93
6120,50.31,239.19,0,15.99,-9.43,-3.53
6130,57.94,209.44,-9.25,16.42,-8.86,-2.97
6140,48.06,168.5,-5.06,17.86,-8.72,-2.63
6150,48.06,168.5,-5.06,17.86,-8.72,-2.63
6160,22.81,128.37,1.87,17.25,-9.14,-2.09
6170,-20.56,64.37,3.75,16.95,-9.63,-2.41
6180,-33.56,41.31,-3.12,16.01,-9.86,-2.64
6190,-43.13,11.69,-8,16.21,-9.92,-3.48
6200,-43.13,11.69,-8,16.21,-9.92,-3.48
6210,-36.19,-12.81,-11.31,15.59,-10.37,-5.04
6220,-33.25,-47,-12.81,15.94,-12,-9.89
6230,-46,-38.06,-28,15.71,-11.9,-10.05
6240,-52.44,-10.5,-48.56,15.21,-11.61,-9.48
6250,-52.44,-10.5,-48.56,15.21,-11.61,-9.48
6260,-45.44,17.69,-65.87,14.29,-11.02,-7.47
6270,-9.56,31.87,-90.19,13.63,-10.69,-6.96
6280,-9.56,31.87,-90.19,12.82,-9.65,-6.95
6290,-2.94,17.81,-103.06,12.6,-9.01,-7.27
6300,-2.94,-0.88,-117.56,12.6,-9.01,-7.27
6310,0.69,-15.63,-126.06,12.47,-8.62,-7.89
6320,6.56,-23.06,-131.75,12.18,-7.31,-8.57
6330,9.13,-23.44,-141.81,11.92,-6.49,-7.96
6340,10.88,-17.06,-156.69,11.62,-5.43,-7
6350,17.5,-7.87,-173.31,11.62,-5.43,-7
6360,29.69,-2.25,-193.94,10.79,-2.88,-5.31
6370,47,-6.31,-211.31,10.27,-0.24,-5.25
6380,65.56,-19.31,-219.19,10.03,1.85,-6.04
6390,78.75,-33.25,-220.37,9.76,3.05,-6.16
6400,77.87,-43.94,-216.87,9.76,3.05,-6.16
6410,61.25,-53.19,-211.31,9.48,4.29,-6.18
6420,37.38,-64.62,-203.5,8.47,7.37,-6.2
6430,13.38,-79.5,-192,8.1,8.4,-6.27
6440,-6.12,-96.56,-178.37,7.86,9.18,-6.62
6450,-14.63,-114.06,-162,7.86,9.18,-6.62
6460,-9.63,-127.5,-139.5,8.41,9.38,-7.99
6470,2.19,-133.19,-114.94,8.44,9.13,-9.31
6480,7.06,-133.25,-96.25,8.09,9.44,-9.6
6490,-1.25,-138.94,-89.44,7.38,10.27,-10.9
6500,-10.31,-153.19,-88.31,7.38,10.27,-10.9
6510,-10.69,-169.75,-88.37,6.94,10.92,-12.01
6520,-2.56,-178.31,-86.87,6.46,12.52,-15.15
6530,7.37,-174.25,-77.31,6.16,12.99,-15.65
6540,8.75,-162.12,-63.63,5.89,13.06,-15.78
6550,-1,-146.31,-45.19,5.89,13.06,-15.78
6560,-20.25,-131.81,-20.5,5.75,12.66,-15.55
6570,-44.94,-121.19,2.44,7.71,9.84,-12.44
6580,-63.94,-116,21.5,8.23,8.49,-12.1
6590,-65.62,-119,31.12,7.14,9.18,-10.97
6600,-50.75,-130.81,23.37,7.14,9.18,-10.97
6610,-20.06,-147.69,-3.87,5.66,10.69,-11.9
6620,37.5,-168.75,-21.19,3.44,11.15,-19.6
6630,88.94,-186.75,-13.63,2.41,11.71,-20.75
6640,91.75,-204.75,-4.31,1.3,12.23,-21.96
6650,65.62,-225.75,-1.69,1.3,12.23,-21.96
6660,56.63,-236.69,5.69,0.19,12.53,-23.49
6670,69.19,-231.81,17,-2.29,12.89,-28.23
6680,85.5,-216.69,32.69,-2.74,12.55,-29.58
6690,92.31,-195.12,54.88,-3.06,11.15,-30.83
6700,81.5,-166.56,84.75,-3.06,11.15,-30.83
6710,56.25,-135.5,117.5,-2.94,9.86,-30.75
6720,29.5,-102.62,148.75,-2.09,6.16,-29.58
6730,11.75,-68,172.81,-1.33,3.35,-27.88
6740,0.88,-37,185.44,-0.84,2.67,-26.82
6750,-11.06,-12.75,186.06,-0.84,2.67,-26.82
6760,-17.25,6.62,181.5,-0.14,2.08,-25.9
6770,-16.69,25.94,179.62,1.78,0.5,-22.53
6780,-19.56,42.88,178.37,2.54,-0.15,-21.38
6790,-28.12,53.75,178.5,3.51,-1.18,-20.43
6800,-38.13,59.38,184.25,3.51,-1.18,-20.43
6810,-51.88,60.94,187.06,4.56,-2.53,-17.9
6820,-62.63,60.31,176.12,4.79,-2.66,-16.58
6830,-60.25,55,157.06,5.22,-2.59,-15.63
6840,-46.56,45.5,140,6.21,-2.63,-14.87
6850,-32.56,36.81,125.75,6.57,-2.65,-14.55
6860,-38.13,18.37,102.69,6.7,-2.61,-14.22
6870,-38.13,18.37,102.69,6.81,-2.85,-13.96
6880,-54.81,1.87,97.75,7.76,-3.8,-14.17
6890,-71.5,-12.25,91.44,7.96,-4.65,-14.59
6900,-92.25,-21.31,83.81,8.6,-5.56,-14.84
6910,-134.75,-24.12,26.69,9.71,-5.45,-12.57
6920,-134.75,-24.12,26.69,9.81,-4.34,-11
6930,-112.44,-15.31,-15.81,9.27,-2.46,-9.5
6940,-60.69,-11.19,-60.25,6.9,1.78,-8.06
6950,7.75,-20.56,-86.25,6.06,2.61,-9.06
6960,82.25,-90.56,-48.81,6.02,2.19,-11.08
6970,82.25,-90.56,-48.81,6.4,0.93,-13.67
6980,-33.81,-144.75,-7.06,7.55,-1.81,-16
6990,-94.5,-154.44,-13.06,7.77,-2.84,-15.58
7000,-105.12,-158.87,-44.44,7.52,-2.9,-14.7
7010,-56.63,-165.94,-78.81,5.08,-0.67,-14.14
7020,29.25,-174.25,-95.06,4.15,-0.11,-16.01
7030,99.62,-173.62,-96.12,3.89,-0.46,-18.96
7040,115.37,-162.12,-96.31,3.87,-1.29,-21.84
7050,86.12,-143.19,-104.94,3.84,-2.1,-24.14
7060,51.25,-122.19,-117.69,3.29,-1.87,-23.68
7070,38.56,-106.19,-128.25,2.71,-1.51,-22.8
7080,46.06,-99.25,-135.56,1.93,-1.28,-22.24
7090,50.81,-104.31,-141.62,1.3,-1.65,-22.93
7100,42.19,-119,-153.75,0.51,-1.72,-23.76
7110,33.13,-134.19,-167.75,-1.26,-0.98,-25.22
7120,31.87,-144.69,-178.87,-2.12,-0.84,-26.34
7130,34.81,-141.31,-192,-2.88,-0.51,-27.66
7140,34.19,-118.5,-204.19,-3.52,-0.06,-28.95
7150,21.81,-86,-216.19,-5.38,0.63,-30.34
7160,3.06,-55.56,-231.25,-6.88,1.49,-29.96
7170,-1,-33.06,-241.75,-8.32,2.35,-29.3
7180,11.94,-18.25,-249.44,-10.07,3.79,-29.64
7190,28.19,-0.06,-256.12,-10.69,4.9,-30.38
7200,34.44,31.56,-251.06,-11.11,6.12,-31.06
7210,24.25,74.44,-232.25,-11.6,7.38,-31.21
7220,-7.56,113.31,-197.12,-12.16,9.16,-29.68
7230,-58.13,139.25,-152,-11.92,9.17,-28.04
7240,-101.87,149.06,-108.56,-11.44,8.97,-25.84
7250,-111,151.62,-73.56,-9.86,7.65,-22.69
7260,-86.69,158.12,-52.13,-8.73,6.86,-22.14
7270,-47.38,171.62,-48.06,-7.72,6.15,-21.95
7280,-4.37,196.37,-52.94,-7.04,5.85,-21.61
7290,28,225.94,-57.88,-5.96,5.44,-20.95
7300,33.13,253.37,-60.25,-5.17,5.34,-20.23
7310,13.63,271.44,-57.88,-4.45,5.33,-18.96
7320,-11.63,278.87,-50,-3.51,5.55,-15.4
7330,-32.06,273.19,-36.44,-2.69,5.56,-13.72
7340,-47.69,255.12,-20.37,-1.81,5.41,-12.15
7350,-59,225.69,-8.13,-0.7,5.37,-9.72
7360,-63.69,180.37,4.5,-0.09,5.28,-8.89
7370,-56.69,122.94,12.69,0.57,5.07,-8.47
7380,-27.56,65.25,9.69,0.91,5.25,-8.73
7390,20.31,17.62,2.25,1.15,6.06,-13.09
7400,61.69,-9.44,-9.81,0.72,6.75,-16.21
7410,75.94,-24,-19.44,-0.3,8.01,-18.96
7420,66.87,-37.25,-14.44,-1.89,10.71,-23.54
7430,47,-44.63,5.12,-2.9,11.66,-25.77
7440,22.69,-46.25,39.44,-3.89,11.99,-27.91
7450,3.25,-39.56,75.06,-4.65,11.99,-29.72
7460,2.44,-10.19,110.06,-4.83,12.56,-32.81
7470,5.25,43.5,152.5,-4.04,11.99,-34.29
7480,-16.5,113.25,192.12,-3.01,10.93,-34.9
7490,-67.31,170.81,222.5,-1.53,8.39,-31.24
7500,-110.56,208.94,246,-0.32,7.34,-27.36
7510,-122.31,223.31,268.5,0.89,5.88,-24.33
7520,-127.31,215.75,288,2.05,4.07,-22.41
7530,-139.94,191.19,300.62,4.44,0.15,-20.6
7540,-149.75,165.06,298.69,5.95,-1.56,-20.07
7550,-141.94,155.12,279.69,7.36,-2.49,-19.34
7560,-121.31,158.5,255.69,9.48,-2.92,-17.98
7570,-104.81,168.62,234.81,10.15,-2.9,-16.99
7580,-101.62,171.12,222.62,10.14,-3.05,-16.03
7590,-108.25,156,215.5,11.25,-4.42,-15.2
7600,-106.12,146.44,201.06,11.66,-4.67,-15.01
7610,-93.25,152.06,187.81,12.31,-4.92,-14.73
7620,-84.19,165.87,177.81,12.92,-5.32,-14.34
7630,-84,184.75,169.87,13.99,-5.77,-12.32
7640,-86.25,203.44,163.19,14.52,-6.01,-10.54
7650,-81.06,215.44,154.69,14.92,-6.07,-8.57
7660,-69,215.25,146.75,15.46,-6.25,-5.49
7670,-57.38,195.62,140.81,15.01,-6.63,-4.36
7680,-53.31,139.5,137,15.36,-7.54,-4.19
7690,-54.06,78.44,125.5,16.14,-8.59,-5.01
7700,-52.31,46.56,106.5,17.45,-10.44,-7.7
7710,-45.94,54.19,79.69,17.98,-11.1,-8.37
7720,-38,83.75,45.81,17.73,-11.29,-7.39
7730,-26.69,97.94,10.94,16.44,-10.04,-4.66
7740,-14.75,95.12,-20.19,16.91,-8.58,-3.33
7750,-2.94,77,-37,15.56,-7.6,-2.67
7760,6.5,36.75,-39.44,15.39,-6.82,-2.18
7770,9.31,-21,-34.88,14.58,-6.95,-4.65
7780,9,-63.19,-39.56,15.18,-6.99,-7.01
7790,15,-63.13,-49.44,15.08,-6.84,-8.99
7800,19.69,-35.19,-59.13,15,-6.74,-11.43
7810,11.56,8.25,-72.44,14.61,-6.27,-11.17
7820,-7.56,44.56,-80.87,13.98,-5.7,-9.59
7830,-21.87,61.81,-84.31,13.53,-5.29,-7.43
7840,-21.87,54.06,-85.44,12.87,-5.06,-4.42
7850,-17.25,25,-84.87,12.8,-5.22,-4.01
7860,-15.63,-16.37,-88.44,12.98,-5.67,-4.42
7870,-13.31,-49.19,-105.75,13.01,-5.96,-6.37
7880,-0.37,-62.44,-132.06,12.76,-5.18,-7.37
7890,21.75,-58.19,-157.06,12.25,-4.15,-8.29
7900,44.31,-44.44,-175.94,11.39,-2.07,-8.8
7910,61.69,-30.06,-186.56,10.83,-1.07,-8.81
7920,68.56,-21.81,-191.81,10.42,-0.21,-8.51
7930,65.56,-22.25,-197.19,10.05,0.76,-8.23
7940,58.38,-26.56,-197.62,9.34,2.44,-7.52
7950,48.19,-36.19,-193.31,9.03,3.27,-7.3
7960,36.75,-49.88,-186,8.78,4.04,-7.32
7970,23.87,-63,-174.25,8.75,4.61,-8.13
7980,5.87,-72.5,-165.75,8.75,4.8,-8.55
7990,-12.75,-77.37,-165.25,8.56,5.09,-8.46
8000,-22.44,-82.31,-170.87,7.97,5.7,-8.15
8010,-19.56,-89.44,-173.25,7.1,7.11,-7.99
8020,-9.38,-94,-166.19,6.92,7.51,-8.42
8030,-4.44,-99.75,-160.5,6.74,7.58,-9.12
8040,-2.31,-103.5,-166.69,6.2,8.2,-9.5
8050,2.06,-115.06,-182.12,5.6,9,-10.08
8060,9.63,-132.69,-203.56,4.86,10.24,-10.77
8070,28.31,-139.56,-220.19,3.62,13.85,-12.27
8080,53.25,-134.19,-216.69,2.95,15.52,-13.38
8090,69.87,-118.81,-196,2.3,16.88,-14.36
8100,70.87,-99.12,-164.75,1.75,17.99,-14.93
8110,54.56,-87.94,-126.62,1.1,18.67,-14.53
8120,29.94,-93.62,-92.44,0.69,18.82,-14.05
8130,13.69,-111.37,-62.75,0.49,18.71,-13.9
8140,16.31,-132.25,-43.13,0.32,18.25,-15.57
8150,30.5,-142.44,-36.56,0.34,18.85,-16.68
8160,48.06,-129.5,-19.06,0.5,18.98,-17.91
8170,47.69,-105.31,11.38,1.01,18.32,-19.23
8180,18.12,-82.25,34.38,1.69,16.57,-18.42
8190,-10.63,-72.75,47.81,1.71,15.95,-16.38
8200,-7.56,-80.12,51.63,1.66,15.5,-15.03
8210,24.06,-95,48.88,1.12,15.88,-14.95
8220,60.44,-116.06,51.69,0.8,15.83,-16.9
8230,75.37,-137.06,59.81,0.33,15.69,-19.39
8240,69.62,-150,68.62,-0.17,15.8,-20.98
8250,60.94,-152.94,83.56,-0.74,15.62,-23.37
8260,55.19,-145.87,102.62,-0.72,14.71,-24.65
8270,52.56,-124.94,113.94,-0.52,14.07,-25.59
8280,54.5,-89.81,119.94,-0.63,14.19,-26.5
8290,48.31,-49.81,135,-1,13.86,-26.27
8300,21.62,-22.94,157.19,-0.89,13.3,-25.09
8310,-4.75,-10.88,181.5,-0.23,11.43,-21.12
8320,-10.63,-11.88,206.56,0.39,9.79,-19.99
8330,-4.81,-21.62,227.94,1.13,8.07,-19.65
8340,-4.62,-34,244.94,1.77,6.24,-19.87
8350,-18.37,-45.75,254.25,2.63,3.14,-20.29
8360,-37.31,-54.13,257,3.15,1.87,-20.28
8370,-49.69,-54.63,252,4.06,0.71,-20.16
8380,-51.19,-45.38,235.62,5.65,-1.18,-19.62
8390,-43.44,-26.56,209.25,6.52,-1.7,-18.91
8400,-27.69,-0.69,176.75,6.97,-1.78,-17.91
8410,-27.69,-0.69,176.75,7.71,-1.47,-16.53
8420,-7.44,41.44,125.69,7.31,-0.56,-13.6
8430,-13.63,35.5,115.56,7.27,-0.45,-12.08
8440,-15.13,12.63,113.69,7.62,-0.77,-11.2
8450,-12.5,-12.19,111.62,8.65,-2.18,-10.84
8460,-15.63,-39.13,102.87,9.05,-2.94,-10.97
8470,-25.75,-70.06,83.44,9.33,-3.51,-11.07
8480,-33.13,-100.81,55.63,9.33,-3.83,-11.46
8490,-28.81,-124.06,21.12,8.41,-3.07,-12.72
8500,-8.56,-136.69,-9.5,7.57,-2,-13.66
8510,-8.56,-136.69,-9.5,7.03,-1.29,-15.1
8520,18.5,-140.12,-26.19,6.52,-0.43,-17.2
8530,31.06,-125.25,-45.56,5.92,0.07,-17.4
8540,24.94,-117.87,-48.31,5.28,0.41,-17.19
8550,21.37,-116.56,-47.63,4.57,0.05,-16.68
8560,21.19,-122.94,-47.75,4.19,-0.5,-16.87
8570,22.62,-135.44,-51.94,3.95,-1.03,-17.52
8580,21.5,-148.12,-60.06,3.61,-1.47,-18.32
8590,17.75,-159.12,-74.5,2.73,-1.71,-19.4
8600,18.25,-170,-96.75,1.99,-1.2,-19.85
8610,18.25,-170,-96.75,1.02,-0.41,-20.36
8620,29.5,-181.06,-123.44,-1.4,1.84,-22.1
8630,105.5,-192.75,-162.81,-2.68,2.31,-23.83
8640,145.25,-182.69,-160.06,-3.57,2.18,-25.94
8650,150.44,-169.44,-151.19,-3.81,1.77,-27.94
8660,150.44,-169.44,-151.19,-4.21,1.59,-31.23
8670,121.81,-153.37,-140.94,-4.17,0.93,-32.13
8680,17.12,-72.25,-113.81,-4.09,0.07,-31.97
8690,-27.12,-23.19,-112.81,-4.41,-1.52,-28.43
8700,-38.69,12.81,-126.25,-4.91,-1.5,-26.25
8710,-38.69,12.81,-126.25,-5.2,-1.49,-25.11
8720,-12.88,30.75,-144.56,-5.67,-1.28,-24.9
8730,58.06,34.31,-187.62,-6.97,0.71,-27.31
8740,69.06,43.38,-192.56,-7.28,1.51,-28.87
8750,48.25,61.69,-183,-7.47,1.93,-29.69
8760,48.25,61.69,-183,-7.47,1.93,-29.69
8770,7.31,85.37,-166.56,-7.15,2.28,-27.4
8780,-56.63,139.81,-130.06,-6.61,1.74,-25.7
8790,-68.37,160.25,-122.44,-5.62,0.52,-22.42
8800,-72.19,166.31,-125.56,-5.07,0.43,-20.76
8810,-72.19,166.31,-125.56,-5.07,0.43,-20.76
8820,-51.63,163.5,-141.87,-4.58,0.93,-19.48
8830,56,161.06,-184.25,-4.81,3.31,-19.81
8840,101.31,165.94,-197.5,-4.65,4.44,-20.9
8850,109.56,179.25,-192.62,-4.48,5.19,-21.5
8860,109.56,179.25,-192.62,-4.48,5.19,-21.5
8870,75.75,194.56,-175.44,-4.2,6.16,-20.19
8880,-23.81,204,-126.37,-2.98,6.28,-15.89
8890,-23.62,199,-108.62,-2.22,6.07,-13.7
8900,11.88,185.75,-101.06,-1.05,5.5,-12
8910,11.88,185.75,-101.06,-1.05,5.5,-12
8920,55.75,164.06,-103.5,-0.84,5.74,-11.9
8930,110.37,102.25,-100.06,-1.82,7.07,-14.47
8940,105.75,61.25,-85.12,-2.03,7.24,-16.28
8950,90.81,25.69,-70.31,-2.47,7.48,-18.34
8960,90.81,25.69,-70.31,-2.47,7.48,-18.34
8970,75.06,0.25,-54.06,-2.95,7.54,-20.84
8980,57.69,-6.69,-37.06,-3.57,8.02,-26.48
8990,42.31,9.19,-21.87,-3.19,8.7,-26.57
9000,47.94,54.06,-1.56,-3.16,7.62,-26.51
9010,75.06,113.12,33.5,-3.16,7.62,-26.51
9020,82.62,153.31,76.19,-2.48,5.63,-26.8
9030,47.5,167.94,110.12,0.91,0.89,-25.9
9040,-9.31,164.94,134.62,1.86,-0.02,-25.17
9050,-63.19,151.56,149.62,2.74,-0.42,-24.49
9060,-91.87,138.12,151.75,2.74,-0.42,-24.49
9070,-85.44,128.31,147.62,3.53,-0.71,-24.47
9080,-56.5,134.87,137.87,6.25,-0.76,-26.34
9090,-30.31,157.69,129.12,6.71,-0.99,-26.32
9100,-30.81,182.44,123.87,7.64,-1.11,-23.64
9110,-51.13,201.06,122.75,7.64,-1.11,-23.64
9120,-65.19,211.5,128.69,8.53,-1.73,-22.37
9130,-77.06,211.56,137.81,10.76,-3.37,-21.42
9140,-102.44,205.94,142.94,12.9,-4.46,-19.35
9150,-134.37,202.25,145.19,13.78,-4.64,-17.39
9160,-156.56,206.62,142.81,13.78,-4.64,-17.39
9170,-165.44,210,137.44,14.24,-4.68,-15.27
9180,-166.19,200.44,130.75,15.02,-4.58,-11.17
9190,-159.56,176.81,119.62,15.28,-4.21,-10.42
9200,-143.12,152.12,105.25,15.4,-4.04,-10.31
9210,-121.94,130.62,96.25,15.4,-4.04,-10.31
9220,-110.81,115.12,92.87,16.01,-4.24,-11.19
9230,-118.06,106.75,94.56,16.85,-4.93,-11.13
9240,-137.06,104.56,96.12,17.31,-5.46,-9.47
9250,-151.25,112.31,95.81,17.19,-5.86,-8.31
9260,-153.81,124.12,93.94,17.19,-5.86,-8.31
9270,-142.44,131.06,80.56,17.31,-5.91,-7.15
9280,-114.31,139.37,61.13,17.34,-4.83,-3.95
9290,-73.62,156.5,45.69,17.09,-4.3,-2.85
9300,-31.81,174.12,35.44,16.94,-4.07,-1.93
9310,-5.31,178.75,36.69,16.94,-4.07,-1.93
9320,-7.62,160.69,45.75,16.38,-4.68,-1.65
9330,-39.81,131.37,56.63,16.64,-6.48,-2.13
9340,-89.25,99.69,64.19,16.2,-8,-1.9
9350,-140.94,32.25,59.81,16.88,-8.19,-1.27
9360,-156,-6,47.81,16.88,-8.19,-1.27
9370,-116.81,-22.81,40.06,16.7,-8.74,-1.65
9380,-57.56,-37.44,34.56,17.51,-10.67,-6.27
9390,-21.62,-49.88,14.69,17.05,-10.41,-7.44
9400,-22.62,-41.31,-18.81,16.13,-9.79,-7.52
9410,-44.69,-26.31,-51.31,16.13,-9.79,-7.52
9420,-51.25,-17.12,-74.19,15.05,-8.22,-6.07
9430,-23.62,-6.75,-88.81,14.08,-7.62,-6.72
9440,16.56,-2.31,-96.37,14.16,-7.52,-7.34
9450,41.69,2.81,-106.12,13.48,-7.43,-7.42
9460,40,6.56,-118,13.48,-7.43,-7.42
9470,17.25,1.69,-133.06,13.17,-6.95,-6.8
9480,-3.12,-6.5,-151,12.57,-5.96,-5.85
9490,-4.5,-16,-165.44,11.53,-4.04,-4.63
9500,11.94,-27.19,-176.94,10.96,-3,-4.41
9510,37.31,-39.63,-181.56,10.7,-2.22,-4.73
9520,55.5,-52.5,-185.31,10.2,-1.03,-5.67
9530,59.25,-66.81,-189.81,10,-0.27,-5.99
9540,55.13,-79.19,-195,9.81,0.61,-6.27
9550,50.13,-87.69,-200.25,9.28,1.5,-6.67
9560,43.94,-92.25,-202.31,8.64,3.05,-7.21
9570,36,-92.5,-200.69,8.27,3.79,-7.19
9580,28,-95.06,-199.69,7.82,4.64,-7.03
9590,23.5,-101.75,-198.94,6.68,6.22,-6.81
9600,24,-117.31,-195.75,6,7.04,-7.26
9610,27.06,-138.5,-191.06,5.63,7.83,-8.09
9620,33.63,-150.56,-186.25,5.19,8.65,-9.06
9630,40.19,-153.19,-177.87,4.86,9.84,-10.76
9640,41.19,-143.75,-164.75,4.72,10.33,-11.44
9650,34.25,-129.12,-150.06,4.78,10.62,-11.76
9660,21.69,-114.19,-137.31,4.94,10.77,-10.95
9670,9.44,-106.44,-132.81,4.62,11.06,-9.99
9680,8.63,-114.06,-137.12,3.36,11.59,-8.99
9690,30.75,-142.75,-145.19,1.83,12.92,-10.27
9700,63.69,-182.87,-153.31,0.91,13.87,-12.25
9710,90.56,-217.62,-158.37,0,14.96,-14.5
9720,111.12,-226.81,-147.87,-0.41,15.78,-17.04
9730,125.12,-207.5,-123.62,-0.05,16.34,-21.02
9740,127.87,-166.56,-96.25,-0.18,16.28,-22.13
9750,115.06,-126.69,-76.69,-0.82,16.51,-22.48
9760,99.12,-98.75,-60.56,-2.55,17.95,-21.62
9770,98.87,-79.06,-38.13,-2.93,18.03,-22.24
9780,100.06,-64.5,-10.13,-3.22,17.98,-23.06
9790,81.19,-52.63,21.62,-3.26,17.7,-23.39
9800,57.88,-37.94,56.75,-2.07,16.04,-22.7
9810,43.81,-19.87,88.44,-1.22,14.46,-22.26
9820,31.19,-4.62,111.37,-0.2,12.7,-21.58
9830,18.75,2.62,118.94,0.65,10.94,-19.14
9840,21.56,1,114.31,0.37,10.97,-18
9850,48.19,-9.31,108.44,-0.23,11.2,-17.87
9860,82.87,-24.19,112.25,-0.54,11.17,-19.12
9870,93.56,-33.19,125.5,-0.46,10.82,-22.68
9880,74.69,-29.19,148.75,-0.24,9.87,-23.21
9890,45.94,-16.12,176.12,0.05,8.44,-22.99
9900,17.12,-4.5,198.69,0.91,5.51,-21.38
9910,-5.69,1.87,212.37,1.3,4.42,-20.16
9920,-15.06,1.75,220.12,1.54,3.5,-19.12
9930,-16.25,-7,227.25,1.86,2.52,-18.7
9940,-27.87,-26.5,230,2.22,1.02,-18.67
9950,-49.75,-54.81,228.75,2.69,0.58,-18.76
9960,-64.25,-79.12,228.81,3.24,0.14,-18.98
9970,-60.44,-92.56,226.31,4.51,-1.37,-19.52
9980,-37.19,-90.06,216.5,4.8,-2.51,-19.88
9990,-6.87,-75.25,199.5,5.25,-3.57,-20.35
10000,13.75,-55.81,174.56,6.34,-4.57,-20.62
