timestamp,gyrox,gyroy,gyroz,accx,accy,accz
10,43.63,-93.5,-29.56,0,0,0
20,51.94,-81.69,-15.81,0,0,0
30,65.06,-77.75,0.88,0,0,0
40,78.37,-81.75,18.31,0.17,10.22,-13.65
50,83.87,-92.25,38.13,-0.1,9.76,-13.85
60,79.75,-105.44,55.81,-0.19,8.06,-15.26
70,68.5,-119.56,65.5,-0.29,7.12,-16.09
80,62.25,-127.44,62.5,-0.5,6.61,-16.75
90,72.75,-126.12,54.38,-1.48,7.73,-17.66
100,97.56,-116.94,54.69,-2.07,8.31,-18.15
110,121.12,-105.87,66.81,-2.44,8.65,-18.79
120,128.69,-96.25,87.37,-2.65,8.29,-19.9
130,117.75,-89.37,113.87,-2.71,7.36,-20.72
140,85.75,-82,138.81,-2.71,6.02,-20.66
150,47.5,-77.19,154.44,-2.76,4.9,-20.32
160,22.31,-74.44,165.94,-2.49,2.96,-17.7
170,20.56,-81.94,173.5,-2.46,1.93,-16.98
180,36.19,-90.5,175.06,-2.38,1.04,-17.06
190,52.81,-93.31,172.75,-2.12,-0.41,-17.16
200,62.44,-97,169.12,-2.15,-0.95,-17.07
210,64.75,-107.06,165.62,-2.33,-1.4,-17.03
220,61.06,-117.87,164.56,-2.54,-1.76,-17.36
230,51.94,-127.31,166.37,-2.89,-3.08,-17.93
240,43.06,-134.06,166.12,-2.89,-4.12,-17.94
250,35.44,-143.31,157.94,-3.01,-5.01,-18.18
260,22.87,-150.37,143.69,-3.15,-6.11,-19.16
270,6.19,-153.5,128.87,-3.43,-6.23,-19.18
280,-10.13,-155.62,116.5,-3.72,-6.42,-19.27
290,-25.87,-155.12,105.06,-3.75,-7.23,-19.22
300,-40.06,-158.06,91.25,-4.05,-7.5,-19.23
310,-49.31,-165.19,73.75,-4.39,-7.64,-19.36
320,-51.44,-172.25,51.94,-4.75,-7.72,-19.59
330,-45.81,-171.94,24.31,-5.34,-7.6,-20.85
340,-35.75,-158.75,-2.56,-5.72,-7.59,-21.09
350,-23.69,-140.81,-30,-5.63,-7.82,-21.16
360,-9.88,-120,-61.63,-6.07,-7.55,-20.97
370,2.19,-101.06,-90.37,-6.24,-7.48,-20.58
380,2.19,-101.06,-90.37,-6.73,-7.05,-19.83
390,25.31,-84.06,-144.31,-7.07,-6.46,-19.23
400,39.31,-81.37,-162.06,-7.41,-5.22,-19.37
410,43.75,-80.31,-172.81,-7.9,-4.27,-19.53
420,41.56,-73.56,-170.69,-8.24,-3.8,-19.78
430,41.56,-73.56,-170.69,-7.63,-3.78,-20
440,18.87,-48.69,-156.44,-8.15,-3.37,-19.96
450,2.12,-36.69,-149.87,-8.74,-3.03,-19.98
460,-22.31,-26.5,-138.56,-9.31,-3.15,-20.1
470,-55.56,-21.69,-131.56,-9.7,-3.9,-19.17
480,-82,-24.44,-133.5,-9.8,-4.15,-18.7
490,-90.75,-30.87,-143.56,-9.71,-4.16,-19
500,-84,-31,-161.5,-10.54,-2.77,-20.37
510,-62.56,-14.81,-177.62,-11.14,-1.88,-20.79
520,-31.19,15.06,-184.62,-11.73,-0.93,-20.78
530,-31.19,15.06,-184.62,-12.15,-0.42,-20.67
540,1.37,44.38,-180.37,-12.47,0.03,-20.57
550,26.44,70.94,-170.94,-12.52,0.32,-20.82
560,22.37,77.81,-165.44,-12.31,0.58,-21.06
570,13.06,85.5,-159.75,-12.47,1.48,-21.66
580,13.06,85.5,-159.75,-12.36,2.16,-21.99
590,3.31,95.94,-153.19,-12.15,2.87,-22.21
600,2.94,151.94,-121,-11.9,3.71,-21.18
610,-1.62,189.12,-93.06,-11.29,3.25,-19.73
620,-23.19,207.19,-67.25,-10.59,2.72,-18.14
630,-23.19,207.19,-67.25,-10.59,2.72,-18.14
640,-52.19,203.25,-44.25,-7.95,1.15,-13.33
650,-51.25,180.5,-12.31,-6.83,0.45,-12.57
660,-24.31,175.12,-9.56,-5.84,-0.27,-11.85
670,5.44,170.44,-16.12,-4.63,-0.73,-10.33
680,5.44,170.44,-16.12,-4.63,-0.73,-10.33
690,33.19,159.5,-25.56,-4.1,-0.74,-9.78
700,71.06,111.56,-44.56,-3.98,0.5,-9.26
710,85.19,80.37,-42.25,-4.13,2.2,-10.34
720,87.19,45.5,-34.31,-4.67,3.14,-12.19
730,87.19,45.5,-34.31,-4.67,3.14,-12.19
740,71.75,20.62,-17.31,-5.73,4.74,-17.65
750,9.25,-14.25,34.63,-5.86,5.05,-19.25
760,-4.31,-9.44,59.19,-5.83,5.28,-20.55
770,10.75,20.44,81.56,-5.87,5.45,-21.31
780,10.75,20.44,81.56,-5.87,5.45,-21.31
790,39.56,56.44,106.81,-4.88,4.06,-22.27
800,47.19,101.56,132.31,-3.95,2.09,-22.23
810,39,105.94,144.5,-4.08,1.55,-22.03
820,27.31,107.94,165.31,-3.9,0.18,-22.86
830,27.31,107.94,165.31,-3.9,0.18,-22.86
840,-4.12,109.81,183.44,-3.63,-0.97,-22.99
850,-75.37,100.75,216.06,-1.87,-4.71,-23.11
860,-102.31,97.06,219.62,-1.43,-5.64,-23.19
870,-111.81,101.25,214.56,-1.09,-6.32,-23.23
880,-111.81,101.25,214.56,-1.09,-6.32,-23.23
890,-109.06,112.94,203.94,-0.33,-7.36,-23.42
900,-101.62,133,187.94,-0.18,-6.88,-22.62
910,-91.75,158.12,174,0.28,-6.35,-19.86
920,-82.44,181.69,164.69,0.93,-6.28,-17.96
930,-71.81,204.06,161,0.93,-6.28,-17.96
940,-66.69,217.31,159.87,1.62,-6.32,-16.37
950,-75.5,213.87,159.87,3.53,-7.23,-12.25
960,-95.31,196.56,157.62,3.89,-7.31,-10.91
970,-112.31,166.12,152.19,4.12,-7.5,-10.38
980,-118.94,111.62,145.81,4.12,-7.5,-10.38
990,-124.31,43,136.5,4.11,-8.34,-14.33
1000,-141.06,-6.37,126.62,4.38,-8.52,-19.23
1010,-162.19,-22.69,119.5,4.07,-9.35,-21.77
1020,-176.94,-17.62,111.81,3.93,-9.4,-22.07
1030,-174.62,5.75,98.56,3.93,-9.4,-22.07
1040,-150,42.06,79.62,4,-9.5,-21.94
1050,-109.19,79.44,54.56,4.56,-9.6,-20.23
1060,-67.69,110.75,24.06,4.68,-8.92,-19.33
1070,-37.56,130.37,-8.88,4.68,-7.76,-18.42
1080,-18.44,139.37,-40.56,4.68,-7.76,-18.42
1090,-6.69,143.94,-63.06,4.21,-5.38,-17.12
1100,-4.87,141.62,-74.75,4.48,-3.85,-16.53
1110,-14.13,139.75,-79.56,4.69,-3.34,-15.87
1120,-27.75,140.87,-80.25,5.05,-3.14,-14.04
1130,-40.69,141.5,-78.62,5.05,-3.14,-14.04
1140,-50.06,138.56,-79.5,5.35,-3.13,-12.99
1150,-52.19,129.19,-83.06,6.38,-3.36,-11.42
1160,-43.31,115,-92.31,6.61,-3.51,-11.66
1170,-20.62,105.62,-105.06,6.87,-3.39,-11.8
1180,4.5,105.81,-121.94,6.87,-3.39,-11.8
1190,23.25,111.69,-142.31,6.66,-2.75,-11.39
1200,39,114.06,-160,5.38,0,-9.77
1210,51.25,113.44,-165.75,5.69,0.43,-9.37
1220,50.88,103.94,-165,5.48,1.43,-8.58
1230,33.25,84,-163.44,5.48,1.43,-8.58
1240,10.13,64.44,-163.69,5.51,2.13,-7.91
1250,-8.69,37.19,-159.37,5.59,3.34,-7.42
1260,-24.81,9.25,-152.69,5.68,3.56,-7.48
1270,-36.63,-17.62,-148.25,5.5,4.01,-8.22
1280,-40.13,-43.63,-151.62,5.5,4.01,-8.22
1290,-38.13,-61.13,-157.69,5.06,4.72,-9.02
1300,-30.31,-69.19,-163.94,3.91,7.62,-11.2
1310,-17.06,-69.56,-166.94,3.6,8.79,-11.64
1320,-0.75,-59.5,-165.56,3.11,10.82,-11.34
1330,11.81,-43.88,-159.81,3.11,10.82,-11.34
1340,17.19,-32,-149.87,2.79,11.76,-10.85
1350,16.19,-30.69,-132.44,2.69,12.54,-9.82
1360,12.69,-38.88,-110.19,2.98,12.61,-9.31
1370,13.63,-55.25,-92.31,2.72,12.95,-9.63
1380,21.81,-74,-82.25,2.72,12.95,-9.63
1390,31.12,-91.81,-72.81,2.39,13.38,-10.31
1400,39.19,-102.31,-61.94,1.83,14.33,-11.47
1410,47.69,-105.37,-48.56,1.42,14.66,-12.02
1420,55.25,-106.94,-30,1.07,14.76,-12.55
1430,60.44,-107.75,-9,0.76,14.56,-12.93
1440,68.37,-104.81,9.56,0.04,14.64,-13.25
1450,77.94,-101.69,32.5,-0.27,14.15,-13.27
1460,81.25,-106.19,57.5,-0.3,13.15,-13.62
1470,73,-115.69,76.62,0.31,11.06,-14.69
1480,53.5,-128.5,87.81,0.43,10.23,-15.17
1490,33.31,-141.62,93.06,0.32,9.62,-15.49
1500,26.56,-149.56,94.06,-0.3,9.51,-15.98
1510,39.69,-146.69,98.19,-0.9,9.47,-16.59
1520,55.81,-134.75,109.87,-1.38,9,-17.11
1530,59.94,-120.37,126.81,-1.74,8.17,-17.37
1540,48.13,-116.87,145.5,-1.44,5.55,-16.93
1550,31.69,-125,158.44,-1.16,4.12,-16.49
1560,24.25,-137.12,160.56,-1.04,2.85,-16.29
1570,28.06,-147.19,155.44,-0.62,0.32,-16.53
1580,37,-154.25,142.81,-0.61,-0.67,-17.33
1590,37.75,-156.19,121.94,-0.89,-1.39,-17.94
1600,28.37,-151.87,98.56,-1.22,-1.95,-17.89
1610,18.81,-155.44,76.25,-1.32,-1.87,-16.84
1620,22.37,-166.44,58.5,-2.13,-1.72,-17.23
1630,29,-178,48.56,-2.67,-1.78,-17.58
1640,32.69,-187.12,42.06,-3.36,-1.82,-19.14
1650,26.75,-192.56,41.25,-3.85,-2.24,-19.79
1660,9.69,-198.12,43.31,-4.18,-2.97,-20.38
1670,-9,-200.37,39.88,-4.02,-4,-20.6
1680,-14.13,-199.44,22.37,-4.31,-4.59,-21.41
1690,-2.31,-184.44,2.12,-4.39,-4.71,-21.86
1700,12.13,-154.87,-17,-4.43,-4.85,-22.13
1710,14.69,-125.62,-35.88,-4.79,-4.93,-20.89
1720,11.25,-108.56,-57.13,-5.37,-4.31,-19.47
1730,20.25,-108.5,-75,-6,-3.79,-18.84
1740,40.13,-113.94,-88.75,-6.51,-2.75,-19.5
1750,62.25,-115.69,-98.94,-7,-2.44,-20.19
1760,76.06,-110.87,-102,-7.18,-2.39,-21.04
1770,71.62,-99.56,-101.06,-7.12,-2.47,-21.54
1780,51.88,-86.06,-100.56,-6.65,-2.68,-21.7
1790,29.44,-72.06,-101.62,-6.85,-2.68,-21.27
1800,19,-54.81,-106.12,-6.65,-2.3,-20.65
1810,20.62,-37.69,-110.06,-7.41,-1.9,-19.85
1820,20.81,-29,-115.5,-7.61,-1.44,-19.41
1830,24,-28.12,-117.44,-7.97,-1.29,-19.37
1840,37.75,-24.5,-118.44,-8.03,-1.23,-19.59
1850,49.81,-17.25,-119.62,-8.41,-1.65,-20.91
1860,42.88,-12.88,-124.31,-8.84,-1.46,-21
1870,28.94,-17.5,-131.25,-9.36,-0.88,-21.18
1880,24.25,-24.94,-135.44,-10.48,-0.06,-23.26
1890,26.5,-24.69,-138.19,-10.9,0.23,-24.65
1900,28.37,-10.19,-140.5,-11.37,0.78,-25.87
1910,26.62,20.81,-137,-11.83,1.19,-26.66
1920,21.25,57.56,-127.5,-12.51,2.16,-26.34
1930,18.31,91.94,-112.12,-12.43,2.3,-25.78
1940,16.19,123.44,-91.56,-11.97,1.73,-25.07
1950,1.62,145.31,-73.94,-10.94,0.28,-23.31
1960,-24,158.5,-62.81,-10.51,-0.14,-22.22
1970,-45.75,167.44,-54.88,-9.87,-0.44,-21
1980,-50.38,175.62,-52.63,-9,-0.11,-18.69
1990,-36.19,187.62,-50.75,-8.36,-0.37,-18.01
2000,-19.31,199.25,-49.06,-7.74,-0.52,-17.35
2010,-9.25,207.69,-51.81,-7.18,-0.55,-16.73
2020,-9.13,213.12,-54.38,-6.07,-0.72,-14.17
2030,-14.88,209.31,-57.63,-5.34,-0.61,-12.58
2040,-14.69,193.44,-62.31,-4.61,-0.37,-11.04
2050,-0.81,165.56,-66.69,-3.68,0.18,-9.49
2060,24.94,133.87,-74.94,-3.49,0.91,-9.64
2070,52.81,106.5,-80.75,-3.47,1.78,-10.3
2080,66.81,82.94,-75.12,-3.53,2.44,-11.52
2090,48.56,62.69,-59.44,-3.7,3.23,-14.33
2100,2.44,50.69,-37.38,-3.53,3.28,-14.48
2110,-42.81,43,-13.56,-3.21,3.02,-14.14
2120,-65.87,36.38,4.31,-2.7,2.66,-13.85
2130,-62.06,37,15.25,-2.44,2.71,-13.9
2140,-41.88,43.44,20.75,-2.28,3.02,-14.01
2150,-17.37,49.63,23.31,-2.16,3.67,-14.17
2160,5.62,54.5,26.87,-2.65,5.92,-14.73
2170,25.69,61.25,38.25,-2.85,6.79,-15.14
2180,30.75,65.56,60.94,-2.79,7.24,-15.35
2190,15.88,60,90.69,-2.39,6.7,-15.34
2200,-6.56,41.69,117.94,-2.14,6.35,-15.53
2210,-15.75,22.19,139.31,-2.02,6.03,-15.95
2220,-2.56,8.13,155.44,-2.37,5.77,-17.6
2230,28.25,5.81,174.31,-2.36,4.5,-19.38
2240,40.56,13.38,197.44,-2.08,2.84,-20.69
2250,22.31,19.5,213.12,-1.5,1.49,-21.13
2260,1.12,25.31,220.62,-0.18,-0.54,-20.36
2270,-4.69,32.06,219.94,0.2,-1.2,-19.86
2280,2.37,39,210.5,0.51,-1.49,-19.48
2290,11.63,48.44,201.56,0.38,-1.94,-18.23
2300,9.06,55,203.12,0.58,-2.81,-17.13
2310,-12.44,35.31,213.31,0.97,-4.19,-17.19
2320,-51.88,2.06,219.81,1.19,-5.71,-17.65
2330,-101.94,-40.44,220.56,1.8,-8.78,-19.62
2340,-145.37,-93.25,208.75,1.58,-9.09,-22
2350,-164.87,-121.94,186.81,0.8,-8.6,-24.29
2360,-157.31,-118.19,168.5,0.39,-8.55,-28.3
2370,-131.69,-78.44,151.25,0,-8.39,-29.43
2380,-98,-13,132.44,-0.08,-8.48,-29.79
2390,-65.69,56.13,112.44,-0.18,-9.15,-27.38
2400,-36,107.06,86.81,-0.16,-9.01,-25.84
2410,-8.94,136.25,60.5,0.06,-8.61,-24.67
2420,5.06,147.87,40.38,0.04,-8.43,-24.09
2430,-2.81,149.5,25.62,0.2,-8.1,-23.4
2440,-27.87,147.44,15.56,0.6,-7.74,-22.98
2450,-54.94,148.31,5.69,0.98,-7.23,-22.4
2460,-71.69,154.44,-5,1.25,-5.86,-20.99
2470,-74.31,164.81,-15.25,1.51,-5.1,-20.35
2480,-69.75,180.19,-23.5,1.91,-4.41,-19.56
2490,-67.31,194.81,-28.62,2.03,-4.11,-18.7
2500,-71.44,201.25,-34.5,2.35,-3.37,-16.18
2510,-71.81,199.75,-40.69,2.69,-2.99,-15.22
2520,-67.5,194,-45.25,3.03,-2.68,-14.5
2530,-64.5,184.12,-47.81,3.7,-2.64,-13.96
2540,-68.06,170.87,-49.63,4.13,-2.78,-13.94
2550,-78.87,157.06,-55.13,4.46,-2.88,-13.62
2560,-82.31,149,-68.44,4.63,-2.43,-13.14
2570,-66.19,149.56,-85.94,3.91,-0.45,-11.48
2580,-34.13,148,-94.62,4.19,0.3,-11.15
2590,-4.31,142.06,-93,4.47,0.18,-11.46
2600,3.87,134.75,-90.37,5.02,-0.39,-11.67
2610,-9.5,125.81,-90.81,5.32,-0.73,-11.34
2620,-30.56,117.37,-95.06,5.52,-0.82,-10.53
2630,-38.75,108.06,-104.81,5.85,-0.45,-8.86
2640,-27.81,98.69,-117.56,5.74,-0.24,-8.65
2650,-11.5,88.81,-130.75,5.67,0.36,-8.37
2660,5.5,85,-148.31,5.6,1.55,-7.79
2670,23.94,75.37,-156.19,4.94,3.54,-7.23
2680,38.13,55.31,-155.87,4.7,4.12,-7.61
2690,40.31,31.06,-148.81,4.69,4.63,-8
2700,31.31,10.94,-140.69,4.52,5.24,-8.64
2710,14.25,-1.37,-131.81,4.58,5.29,-8.49
2720,-7,-14.06,-123.37,4.67,5.28,-8.33
2730,-27.56,-28.12,-119.44,4.76,5.42,-8.21
2740,-44.56,-42.88,-121.31,4.88,6.27,-7.97
2750,-55,-60.5,-125.19,4.82,6.93,-8.08
2760,-52.19,-77.06,-131.62,4.62,7.99,-8.39
2770,-35.94,-87.25,-134.94,4.08,9.95,-9.62
2780,-12.75,-88.37,-132.19,3.6,10.87,-10.27
2790,8.94,-82.62,-122.19,3.29,11.38,-10.83
2800,23.5,-73.19,-106.75,3.24,11.45,-11.01
2810,32,-63.81,-96.87,3.24,11.84,-10.4
2820,39.81,-59,-95.69,2.86,12.43,-9.98
2830,47.5,-63.25,-100.31,2.39,13.49,-9.62
2840,60.31,-76.19,-102.5,0.77,16.47,-9.73
2850,82.06,-92.44,-90.56,0.02,17.62,-10.35
2860,104.5,-105.44,-59.94,-0.46,17.92,-11.34
2870,109,-118.19,-16.25,-0.34,15.92,-13.88
2880,88.06,-125.56,22.75,-0.33,14.47,-14.32
2890,54.13,-128.12,47.63,-0.48,13.41,-13.95
2900,31.19,-130.69,62.44,-0.86,12.65,-13.45
2910,27.37,-135.25,75.31,-1.07,10.89,-12.59
2920,38.44,-144.75,87.31,-1.18,9.84,-12.82
2930,53.19,-157.06,96.94,-1.17,8.73,-13.5
2940,60.63,-169,105.5,-0.96,6.55,-15.13
2950,58.94,-174.62,108.94,-1.09,5.56,-15.57
2960,53.06,-176.25,110,-1.27,4.53,-15.62
2970,51.44,-177.12,106.81,-1.53,3.69,-15.55
2980,56.31,-179.19,102.31,-1.81,2.34,-15.64
2990,56.31,-179.19,102.31,-2.22,1.61,-16.37
3000,72.56,-190.69,91.06,-2.47,0.86,-16.97
3010,66.5,-195.87,80.87,-3.15,0.38,-17.8
3020,56.06,-199.25,72.06,-3.5,0.12,-18
3030,46.69,-204.37,68.87,-3.6,-0.35,-18.38
3040,36.31,-207.87,65.31,-3.62,-0.84,-18.84
3050,22.81,-206.87,60.06,-3.26,-2.47,-19.41
3060,7.94,-204.06,47.13,-3.56,-3.07,-19.23
3070,-0.81,-203.87,25.37,-4,-3.38,-18.99
3080,1.56,-209,-3.12,-5.61,-2.46,-19.55
3090,1.56,-209,-3.12,-6.63,-1.6,-20.3
3100,16.5,-214.37,-31.06,-7.37,-0.96,-21.32
3110,54.13,-209.94,-57.19,-7.76,0.25,-23.76
3120,60.38,-188.06,-56.19,-7.69,0.12,-24.14
3130,54.13,-154.44,-47.44,-7.62,-0.51,-23.89
3140,54.13,-154.44,-47.44,-7.62,-0.51,-23.89
3150,36.13,-124.62,-41.5,-7.49,-2.67,-20.89
3160,-4.5,-109.56,-63.88,-7.99,-2.27,-20.52
3170,-6.81,-122.5,-85.44,-8.53,-1.52,-21.14
3180,11.06,-124.19,-102.56,-9.51,0.16,-22.96
3190,11.06,-124.19,-102.56,-9.51,0.16,-22.96
3200,39.25,-105.06,-111.19,-9.62,0.09,-23.8
3210,43.44,-37.5,-100.37,-9.37,-0.42,-23.27
3220,9.88,-18.69,-94.37,-9.04,-1.32,-20.7
3230,-23.31,-13.56,-92.12,-8.66,-2.06,-19.61
3240,-23.31,-13.56,-92.12,-8.66,-2.06,-19.61
3250,-43,-17.12,-96.12,-8.99,-1.81,-18.63
3260,-17.62,-22.5,-136.75,-9.74,-0.71,-19.57
3270,17,-12.94,-156.94,-10.5,0.61,-20.58
3280,43.25,7.56,-163.19,-11.28,1.49,-21.26
3290,43.25,7.56,-163.19,-11.28,1.49,-21.26
3300,46.56,31.25,-152.75,-11.75,1.64,-21.55
3310,-23.37,57.19,-119.37,-10.94,0.12,-19.95
3320,-54.38,56.44,-117.56,-10.85,0.46,-17.99
3330,-47.88,53.38,-127.06,-11.15,1.28,-18.3
3340,-47.88,53.38,-127.06,-11.15,1.28,-18.3
3350,-10.25,54.75,-136.44,-11.56,2.01,-19.72
3360,20.19,78.81,-132.44,-13.03,4.21,-22.75
3370,-2.69,95.5,-113.62,-12.93,4.37,-22.67
3380,-28.75,110.5,-92.19,-12.81,4.41,-22.23
3390,-28.75,110.5,-92.19,-12.81,4.41,-22.23
3400,-35.13,131.62,-74.5,-12.57,4.69,-20.62
3410,-6.75,181.75,-38.19,-11.49,3.59,-19.37
3420,-11.31,192.5,-25.25,-10.72,3.21,-17.55
3430,-24.19,197.25,-11.63,-10.04,2.87,-16.56
3440,-24.19,197.25,-11.63,-10.04,2.87,-16.56
3450,-37.13,198.12,3.37,-9.32,2.4,-15.65
3460,-53.94,191.37,25.5,-7.42,1.4,-12.81
3470,-53.94,191.37,25.5,-6.54,0.8,-11.95
3480,-53.13,188.62,35.69,-5.73,0.25,-11.07
3490,-49.56,183.81,40.94,-5.73,0.25,-11.07
3500,-43.56,175.62,42.19,-4.4,-0.87,-9.46
3510,-37.31,166.94,39.38,-3.14,-1.33,-7.56
3520,-31,153.56,31.44,-2.65,-1.37,-6.63
3530,-20.19,135.19,21.56,-2.1,-1.41,-5.56
3540,-4.25,111.44,11.19,-2.1,-1.41,-5.56
3550,10.69,78.31,-0.88,-1.91,-1.11,-5.72
3560,21.62,35.94,-17.19,-3.82,2.89,-9.52
3570,29.5,-21.12,-30.44,-4.51,4.09,-11.95
3580,40.25,-70,-34.31,-5.29,5.51,-14.1
3590,55.19,-95.37,-35.69,-5.29,5.51,-14.1
3600,77.25,-97.12,-35,-7.04,8.93,-18.21
3610,99.94,-80.5,-21,-8.1,10.22,-21.7
3620,108.31,-58.31,11.5,-8.27,9.97,-23.01
3630,92.31,-35.19,53.69,-8.17,8.36,-24.33
3640,54.56,-16.75,97.81,-8.17,8.36,-24.33
3650,14.81,-3.87,138.69,-7.88,7.15,-24.66
3660,-7,9.75,171.06,-6.61,3.77,-24.32
3670,-2.81,37.19,191.56,-6.1,2.6,-24
3680,19.56,73.37,203.12,-5.44,1.39,-23.51
3690,42.94,106.19,212.44,-5.44,1.39,-23.51
3700,54.13,133.37,218.44,-4.66,0.27,-22.67
3710,52.5,149.37,219.31,-2.36,-1.6,-19.23
3720,44.81,154.12,215.75,-1.62,-1.56,-18.03
3730,40.25,151.06,207.62,-0.41,-1.6,-17.14
3740,44.06,143.37,198.94,-0.41,-1.6,-17.14
3750,44.75,133.19,193.94,0.02,-1.73,-17.06
3760,33.63,128.37,193.75,1.2,-3.17,-15.38
3770,9.19,123.37,196.06,1.29,-3.75,-14.03
3780,-17,121.31,198.37,1.55,-4.58,-12.81
3790,-33.31,116.19,201.31,1.55,-4.58,-12.81
3800,-42.25,97.25,204.12,1.98,-5.71,-11.82
3810,-52.88,46.31,202.31,2.98,-8.52,-15.73
3820,-59.44,-31.06,190.06,2.97,-8.4,-18.83
3830,-42.69,-88.5,170.06,3.03,-9.16,-24.68
3840,-3.69,-101.19,150.44,3.03,-9.16,-24.68
3850,26.81,-76.31,128.44,2.74,-9.29,-26.67
3860,26.56,-28.87,103,1.36,-8.58,-27.02
3870,-2.44,28.56,83.25,1.22,-8.49,-23.59
3880,-44.63,70.87,75.87,1.37,-8.52,-22.47
3890,-78.94,86.37,73.12,1.37,-8.52,-22.47
3900,-92.62,87.31,67.44,1.78,-8.62,-21.89
3910,-88.81,88,59.69,2.86,-8.94,-21.48
3920,-75.94,91.81,46.13,2.85,-8.6,-21.43
3930,-57.63,100.87,26,2.79,-8.09,-21.17
3940,-41.88,112.75,4.5,2.79,-8.09,-21.17
3950,-32.88,121.75,-14.81,2.22,-6.04,-20.23
3960,-26.12,127.94,-27.12,2.16,-5.32,-20.12
3970,-25.81,128.75,-25.12,2.16,-5.32,-20.12
3980,-42.88,124.44,-17.44,2.66,-6.52,-18.85
3990,-73.5,123.62,-14.13,2.66,-6.52,-18.85
4000,-99.37,123.75,-15.31,3.1,-6.76,-17.88
4010,-107.94,123.44,-21.31,3.62,-7.03,-17.26
4020,-102,126.31,-36.5,3.96,-6.67,-16.25
4030,-87.81,133.12,-59.75,3.44,-5.86,-15.36
4040,-65.44,141.37,-82.37,3.84,-4.48,-14.32
4050,-37.94,144.56,-96.06,3.14,-3.31,-13.05
4060,-14.88,141.62,-106.5,3.21,-2.64,-12.74
4070,0.75,135.37,-109.25,3.27,-2.37,-12.47
4080,6.06,132.37,-110.5,3.41,-1.87,-11.34
4090,2.75,123.75,-110.44,3.76,-1.77,-10.95
4100,-4.06,108.31,-108.44,4.16,-2.09,-10.63
4110,-11.75,94.5,-107.75,4.55,-2.45,-10.52
4120,-24.19,81.94,-113.69,4.49,-2.74,-9.99
4130,-39.19,69,-125.62,4.64,-2.25,-9.33
4140,-42.38,59.19,-139.62,4.35,-1.89,-8.87
4150,-32.38,51.13,-155.37,3.88,-0.18,-8.37
4160,-18.06,42,-170.94,3.46,0.98,-8.28
4170,-7.12,31.19,-181.56,3.1,2.1,-8.23
4180,-2.56,17.19,-182.5,2.85,3.02,-8.27
4190,-6.31,-0.13,-175.12,2.67,3.99,-8.28
4200,-14.5,-19.75,-166.31,2.51,4.44,-8.26
4210,-20.62,-37.75,-159.5,2.22,4.96,-8.3
4220,-20.81,-54.06,-151.31,2.36,5.46,-8.9
4230,-16,-64.62,-144.25,2.39,5.65,-9.19
4240,-11.63,-69.25,-142.12,2.47,5.95,-9.4
4250,-10.31,-71.62,-144.94,2.44,7.26,-9.29
4260,-9.88,-77.94,-152.37,2.08,8.39,-9.49
4270,-3.94,-89.37,-158.25,1.64,9.61,-9.85
4280,11.44,-98.25,-157.19,1.13,10.79,-10.35
4290,31.5,-99.5,-148.31,0.47,12.64,-11.42
4300,43.94,-97.31,-133.31,0.11,13.32,-11.67
4310,44.56,-101.5,-112.94,-0.11,13.65,-11.83
4320,43.63,-110.56,-91.69,-0.44,14.36,-12.99
4330,44,-115,-71.37,-0.69,14.36,-13.23
4340,47.69,-115.37,-50.19,-0.86,14.32,-13.45
4350,57.13,-111.5,-32.13,-1.07,14.24,-13.53
4360,68.44,-107,-19.56,-1.58,14.44,-13.46
4370,80.37,-106.56,-9.63,-2.12,14.71,-13.6
4380,91.87,-111.62,5.62,-2.66,14.7,-14.18
4390,96.81,-118.62,29.75,-3.4,13.77,-15.39
4400,91.62,-124.69,59.81,-3.45,12.37,-16
4410,73.87,-131.44,90.37,-3.52,10.83,-16.22
4420,51.13,-140.94,111.69,-3.62,9.5,-16.34
4430,40.31,-150.5,122.87,-3.88,7.64,-16.97
4440,43.56,-155.37,126.19,-4.14,7.1,-17.38
4450,56.56,-156.44,129.87,-4.38,6.47,-18.23
4460,63.56,-152.19,138.75,-4.36,5.06,-19.23
4470,56.75,-145.19,151.06,-4.4,3.69,-19.26
4480,39.25,-139.25,164.81,-4.2,2.15,-18.79
4490,15.13,-139.56,171.56,-3.69,-0.71,-18.29
4500,-8.31,-153.5,168.12,-3.77,-1.83,-18.81
4510,-27.56,-173.94,155.25,-3.74,-2.24,-19.23
4520,-31.69,-182.81,129.69,-4,-2.1,-19.54
4530,-13.38,-175.06,102.56,-4.41,-1.9,-20.36
4540,13.13,-156.75,81.44,-4.58,-1.85,-20.45
4550,32.56,-136.19,64.94,-4.67,-1.77,-20.36
4560,38.31,-118.56,53.69,-4.78,-2.31,-19.39
4570,30.94,-107.25,46.56,-5.02,-2.83,-18.37
4580,16.25,-107.5,41,-5.06,-3.56,-17.49
4590,0.31,-126,33.63,-5.23,-4.23,-17.47
4600,-10.94,-152.81,21.25,-5.47,-5.22,-19.98
4610,-15.19,-171.94,3.37,-5.67,-5.21,-21.27
4620,-9.56,-163.94,-21.87,-6.15,-4.9,-21.91
4630,1.75,-128,-47.38,-6.88,-4.15,-21.01
4640,10.94,-92.12,-66.37,-7.01,-3.75,-19.83
4650,16.12,-69.06,-80.69,-7.02,-3.43,-18.79
4660,18.06,-61.38,-91.81,-6.96,-3.29,-17.93
4670,17.69,-65.37,-103.5,-7.38,-2.22,-17.31
4680,19.31,-70.12,-112.81,-7.53,-2.26,-17.23
4690,18.81,-74.37,-121.25,-7.86,-1.98,-17.06
4700,19.5,-81.87,-131.44,-8.48,-1.42,-18.63
4710,26.44,-91.12,-137.56,-8.73,-1.31,-20.15
4720,34.44,-88.94,-145.81,-8.82,-1.17,-21.18
4730,36.75,-72.56,-151.94,-9.31,-0.49,-21.58
4740,35.19,-51.63,-158.31,-9.71,0,-21.28
4750,34.25,-32.38,-162.5,-10.01,0.18,-20.92
4760,32.56,-19.06,-162.87,-10.22,0.13,-20.7
4770,27.75,-17.94,-167.37,-10.94,0.91,-21.34
4780,27.12,-22.37,-176.69,-11.49,1.6,-21.91
4790,38.75,-24.25,-188.69,-12.28,2.53,-22.6
4800,64.5,-16.31,-197.5,-14.19,4.87,-24.97
4810,90.25,2.81,-192.81,-14.63,5.18,-26.16
4820,91.69,29.25,-174.69,-15.04,5.44,-26.83
4830,63.31,57.06,-147.69,-15.23,5.45,-26.87
4840,21.12,87,-110.75,-14.5,4,-25.24
4850,-22.56,116.19,-74,-13.55,2.57,-23.58
4860,-58.19,138.81,-48.13,-12.72,1.62,-21.54
4870,-65.62,156,-37.56,-11.48,0.56,-19
4880,-45.13,175.31,-33.25,-10.74,0,-17.97
4890,-22.69,194.81,-32.88,-10.02,-0.27,-17.02
4900,-12.5,204.75,-36,-9.44,-0.18,-16.14
4910,-14.31,206.94,-37.25,-8.61,0.2,-13.8
4920,-19.56,201.87,-33.81,-7.94,0.14,-12.99
4930,-26.19,192.06,-27.75,-7.32,0,-12.17
4940,-35.38,178.37,-21.56,-6.14,-0.47,-10.3
4950,-41,159.31,-16.44,-5.63,-0.65,-9.71
4960,-40.88,136.94,-14.13,-5.1,-0.8,-9.31
4970,-35.94,114.44,-12.75,-4.31,-1.18,-9.17
4980,-31.06,89.56,-12.44,-4.03,-1.11,-9.29
4990,-28.12,66.19,-15.5,-3.94,-0.91,-9.44
5000,-23.81,47.13,-17.25,-3.85,-0.9,-9.78
5010,-20.44,27.31,-16.37,-3.95,-0.56,-11.54
5020,-18.69,4.75,-19.37,-4.3,0.1,-12.99
5030,-11.88,-12.63,-23.81,-4.54,0.9,-14.69
5040,4.19,-16.56,-28.06,-5.27,2.71,-17.78
5050,23.81,-4.62,-32.94,-5.84,4.2,-18.35
5060,46.56,18.81,-36.63,-6.47,5.53,-18.64
5070,63,34.75,-30.87,-6.98,6.59,-19.16
5080,60.94,30.44,-16.87,-8.22,8.51,-21.08
5090,46.31,8.81,7,-8.53,8.66,-23.01
5100,30.94,-12.94,44.31,-8.26,8.1,-25.18
5110,16.37,-13.19,88.25,-6.83,5.2,-28.34
5120,-0.37,13.38,126.31,-6.02,3.41,-28.74
5130,-19.87,56.06,152.75,-5.19,1.84,-28.36
5140,-37.88,102.37,162.19,-4.69,0.95,-26.97
5150,-40.56,143.81,157.94,-4.47,0.78,-22.84
5160,-18.31,174.37,152.69,-4.18,0.76,-21.59
5170,10.38,193.87,153.25,-3.59,0.42,-20.81
5180,17.5,203.25,159.81,-2.66,-0.6,-19.15
5190,-5.12,201.37,168.25,-2.11,-0.86,-18.18
5200,-44.75,191.12,178.37,-1.45,-1.29,-16.87
5210,-78.31,181.25,190.37,0.43,-2.84,-14.18
5220,-93.19,174.69,195.31,1.38,-3.16,-12.77
5230,-89.06,171.94,190,2.18,-3.32,-11.38
5240,-71.87,169,179.06,3.01,-3.35,-10.15
5250,-52.13,161.37,165.62,4.33,-3.06,-7.81
5260,-36.63,147.12,147.12,4.78,-2.26,-6.9
5270,-26.81,121.25,125.81,4.82,-1.14,-6.31
5280,-23.12,86.12,108.37,4.13,1.19,-5.95
5290,-23.37,42.56,103.62,3.68,1.71,-6.27
5300,-23.81,-10.25,113.87,3.53,1.78,-7.63
5310,-24.5,-70.94,131.19,3.42,1.44,-10.1
5320,-24.25,-102.37,148.75,4.2,-1.17,-14.3
5330,-26.06,-107.06,162.25,4.23,-2.69,-15.85
5340,-31.5,-102.25,162.5,4.07,-3.74,-16.89
5350,-37.63,-90.44,153.75,3,-5.47,-18.48
5360,-41.25,-86.87,144.06,2.3,-6.39,-19.75
5370,-46.38,-90.69,136.75,1.93,-7.45,-21.05
5380,-61.25,-107.31,128.5,1.34,-8.57,-24.56
5390,-75.12,-133.69,110.62,0.45,-8.22,-26.53
5400,-70.31,-139.25,87.94,-0.02,-7.92,-28.65
5410,-49.25,-116.06,71.94,-0.32,-8.18,-30.65
5420,-30.19,-65,58.19,-0.37,-8.75,-32.18
5430,-25.5,6.69,41,-0.46,-8.63,-30.94
5440,-33.19,73.44,20.31,-0.47,-7.9,-28.74
5450,-36.94,122.5,-0.25,-0.44,-5.93,-23.67
5460,-26,154.37,-17.69,-0.15,-5.14,-21.99
5470,-9.63,168.44,-27.69,0.4,-4.68,-21.01
5480,-6.75,162.56,-30.37,1.03,-4.44,-20.37
5490,-18.19,152.31,-31,1.83,-4.36,-18.64
5500,-32.44,144.19,-33.19,2.21,-4.4,-17.96
5510,-39.19,137.12,-38.5,2.57,-4.52,-17.52
5520,-39.94,132.44,-46.38,3.1,-5.13,-17.55
5530,-44.63,130.62,-57.06,3.23,-4.73,-16.88
5540,-50.94,138,-74.5,2.99,-3.75,-15.61
5550,-47,148.87,-91.5,2.51,-2.74,-14.52
5560,-33.94,151.37,-99.56,2.51,-1.7,-12.88
5570,-19.56,146.44,-99,2.68,-1.48,-12.43
5580,-10.19,135.81,-97,3.04,-1.77,-12.16
5590,-8.94,121.56,-93.44,3.87,-2.98,-12
5600,-8.94,121.56,-93.44,4.21,-3.35,-12.03
5610,-17.25,103.19,-95.06,4.48,-3.13,-12.03
5620,-37.13,75.12,-120.81,4.41,-2.76,-11.76
5630,-33.44,72.94,-139.5,3.73,-0.46,-10.72
5640,-16.37,76.31,-155.81,3.44,0.43,-10.42
5650,-16.37,76.31,-155.81,3.35,1.34,-10.46
5660,19.69,71.75,-162.56,3.43,1.99,-10.23
5670,19.25,65.37,-158.12,3.57,2.21,-9.77
5680,12,60.19,-157.87,3.51,2.68,-8.99
5690,3.62,52.13,-158.56,3.3,3.46,-7.9
5700,3.62,52.13,-158.56,3.29,3.71,-7.81
5710,0.25,35.56,-157.75,3.22,3.99,-7.83
5720,-4.19,-6.06,-157.69,3.04,4.55,-7.92
5730,-10.13,-26.06,-163.31,2.38,6.8,-8.16
5740,-14.75,-50.38,-164.06,2.09,7.82,-8.57
5750,-14.75,-50.38,-164.06,2.08,8.46,-9.29
5760,-8,-68.31,-155.87,2.31,8.75,-10.49
5770,15.5,-78.81,-129.56,2.06,9.2,-10.7
5780,19.81,-80.25,-125.44,1.71,9.98,-10.88
5790,25,-85.19,-123.12,1.27,10.74,-11.07
5800,25,-85.19,-123.12,0.59,12.41,-11.83
5810,35.25,-90.56,-118,0.33,13.14,-12.25
5820,58.06,-97.19,-94,0.08,13.68,-12.81
5830,64.87,-100.87,-76,-0.41,14.65,-13.87
5840,70,-103.81,-56.94,-0.72,14.94,-14.31
5850,70,-103.81,-56.94,-0.86,14.69,-14.7
5860,75.56,-101.19,-33.81,-1.01,14.2,-14.8
5870,74.81,-85.12,17.5,-1.4,13.34,-13.22
5880,68.69,-79.75,35.94,-1.81,12.94,-12.18
5890,67.62,-86.69,52.5,-2.32,12.45,-11.57
5900,67.62,-86.69,52.5,-2.32,12.45,-11.57
5910,71.75,-109.37,70.94,-2.9,11.05,-12.77
5920,76.06,-159.19,105.94,-3.61,9.46,-14.74
5930,74.31,-170.5,125.37,-3.39,6.42,-16.57
5940,69.25,-182.62,146.19,-3.44,4.71,-18.05
5950,69.25,-182.62,146.19,-3.44,4.71,-18.05
5960,55.31,-194.87,160.81,-3.34,3.42,-18.92
5970,12.81,-185.75,159.75,-4.04,1.03,-18.08
5980,4.12,-171.94,152.19,-4.52,0.63,-17.33
5990,8.88,-169.5,142.5,-5.39,0.27,-16.91
6000,8.88,-169.5,142.5,-5.39,0.27,-16.91
6010,24.56,-174.44,135.25,-5.43,-0.95,-17.96
6020,46.75,-214,131.75,-5.33,-2.63,-20.64
6030,44.56,-219.87,131.62,-5.16,-3.94,-21.51
6040,34.69,-211.81,124.5,-5.01,-6.13,-21.87
6050,34.69,-211.81,124.5,-5.01,-6.13,-21.87
6060,20.69,-194.06,108.56,-5.13,-6.88,-21.11
6070,10.94,-179.62,86.06,-5.97,-7.77,-20.43
6080,8.81,-174.31,58.69,-6.28,-7.62,-20.91
6090,12.5,-175.56,31.94,-7.06,-7.01,-21.5
6100,16.75,-182.94,4.69,-7.06,-7.01,-21.5
6110,23.06,-180.12,-19.5,-7.64,-6.84,-22.07
6120,25.12,-168.06,-34.38,-8.12,-7.21,-22.95
6130,14.25,-152.62,-48.13,-8.35,-7.11,-22.58
6140,-7.19,-137.44,-64.44,-8.98,-5.08,-22.24
6150,-22.56,-126.37,-87.06,-8.98,-5.08,-22.24
6160,-17.94,-107.44,-112.81,-9.37,-4.19,-21.67
6170,-2.06,-82.25,-130.69,-10.34,-1.73,-20.33
6180,12.81,-62.56,-143.25,-10.7,-1.59,-20.16
6190,20.19,-47.88,-148.25,-10.74,-2.02,-20.21
6200,15.44,-41.31,-145.5,-10.74,-2.02,-20.21
6210,-14.75,-35.44,-134,-10.37,-3.06,-20.54
6220,-14.75,-35.44,-134,-10.15,-3.43,-20.5
6230,-30.44,-29.75,-145.06,-10.81,-2.66,-20.41
6240,7.25,-4.31,-187.44,-12.13,-0.84,-21.72
6250,42.81,7.25,-201.37,-12.13,-0.84,-21.72
6260,61.13,18.12,-206.37,-12.55,-0.3,-22.72
6270,61.13,18.12,-206.37,-13.28,0.31,-24.53
6280,38.38,28.31,-204.62,-14.73,3.12,-25.56
6290,38.38,28.31,-204.62,-15.05,4.48,-26.02
6300,57.25,85.5,-192.56,-15.05,4.48,-26.02
6310,65.06,132.75,-162.19,-14.88,4.8,-26.57
6320,65.06,132.75,-162.19,-13.16,3.8,-22.3
6330,-20.19,195.37,-97.56,-12.51,3.35,-20.13
6340,-60.06,206,-70,-10.97,2.15,-16.87
6350,-79.12,209.94,-46.06,-10.97,2.15,-16.87
6360,-86.75,214.25,-27.06,-10.09,1.43,-15.58
6370,-92.19,215.25,-14.06,-8.2,0.41,-13.24
6380,-96.87,214.12,-6,-6.62,-0.31,-10.34
6390,-96.5,211.87,-1.69,-5.76,-0.57,-9.17
6400,-89.81,206.25,-2.81,-5.76,-0.57,-9.17
6410,-80.56,196.12,-8.5,-5.1,-0.63,-7.97
6420,-66.69,176.69,-15.19,-4.07,-0.25,-5.15
6430,-49,149.12,-20.44,-3.54,-0.06,-5.06
6440,-31.94,117.19,-25.81,-3.32,0.27,-5.26
6450,-16.87,72.19,-34.69,-3.32,0.27,-5.26
6460,-0.06,6.25,-39.75,-4.02,2.68,-6.76
6470,24.06,-43.19,-39.19,-4.9,5.16,-11.54
6480,44.94,-73.37,-35.81,-6.25,7.98,-15.32
6490,59.69,-58.44,-29.75,-7.17,8.88,-16.08
6500,65.06,-34.56,-13.19,-7.17,8.88,-16.08
6510,69.62,-26.56,9.56,-7.88,10.08,-16.96
6520,77.25,-15.5,44,-9.29,10.31,-20.45
6530,76.06,-15.13,86.75,-9.47,9.33,-22.63
6540,50.38,-24.37,127.25,-9.77,8.73,-24.14
6550,15.38,-20.75,161.12,-9.77,8.73,-24.14
6560,-1.06,2.44,197.12,-10,7.13,-25.39
6570,-5.81,38.69,233.56,-9.26,5.2,-25.8
6580,-20.87,78.56,258.62,-8.4,3.03,-25.3
6590,-43.88,106.19,271.31,-6.37,-0.58,-21.15
6600,-60.63,108.37,272.44,-5.28,-1.51,-19.37
6610,-63.31,94.19,263.81,-4.38,-2.05,-18.1
6620,-50.94,73.87,251,-3.52,-2.3,-17.49
6630,-33.44,56.88,237.62,-2.13,-3.07,-17.96
6640,-24.12,47.63,225.12,-1.72,-3.7,-18.37
6650,-20.37,38.19,211.81,-1.14,-4,-17.84
6660,-13.56,24.25,197.81,-0.67,-4.74,-18.25
6670,-4.31,7.81,184.75,-0.37,-4.98,-18.88
6680,3.19,-11.69,176.75,-0.62,-5.73,-20.43
6690,-3.94,-30.31,168.31,-0.97,-6.51,-22.38
6700,-26.31,-41.69,157.69,-1.71,-7.62,-26.52
6710,-53.69,-40.5,145.25,-2.02,-7.81,-28.3
6720,-75.87,-22.94,129.75,-2.53,-7.78,-29.69
6730,-86.44,8.88,116.06,-3.28,-7.63,-31.32
6740,-88.06,56.06,105.69,-3.31,-7.88,-31.47
6750,-88.25,105.75,92.06,-3.24,-8.06,-30.79
6760,-81.12,148.19,73.37,-2.95,-7.84,-29.61
6770,-59.44,187.12,55.5,-2.71,-6.69,-25.98
6780,-32.94,217.94,41.75,-2.1,-6.46,-24.38
6790,-18.5,242,28.06,-1.24,-6.3,-22.96
6800,-21.06,259.62,15.25,-0.7,-5.88,-19.57
6810,-33.94,264.56,4.44,-0.25,-5.63,-17.69
6820,-46.56,255,-5.94,0.24,-5.29,-16.01
6830,-53.56,234.06,-14.19,1.07,-4.75,-14.23
6840,-59.88,211.19,-19.69,1.66,-4.85,-14.2
6850,-69.75,194.56,-28.81,2.31,-4.99,-14.17
6860,-77.69,187.69,-42.56,2.68,-4.96,-13.95
6870,-76.56,188.37,-58.94,2.83,-4.42,-12.84
6880,-63.56,193.25,-75.37,3.1,-3.93,-12.22
6890,-45.75,197.94,-90.62,3.28,-3.39,-11.74
6900,-32.06,199.5,-103.25,3.31,-2.14,-10.72
6910,-22.44,199.62,-111.12,3.51,-1.58,-9.99
6920,-15.25,196.25,-114.44,3.79,-1.21,-9.27
6930,-13.88,187.25,-117,3.66,-0.86,-8.9
6940,-14.69,177.81,-118.12,4.51,-0.33,-7.5
6950,-14.31,166,-122.25,4.6,0.19,-7.04
6960,-14.75,154.94,-122.81,5.01,0.53,-6.62
6970,-17.56,150.44,-124.12,5.69,0.52,-6.21
6980,-28.5,155.69,-128.75,5.09,0.36,-6.09
6990,-36,164.25,-141.87,5.9,1.08,-5.19
7000,-31.25,132.69,-148.87,5.37,1.64,-3.92
7010,-24.19,74.25,-154.87,5.22,3.17,-4.25
7020,-19.94,46.25,-157.62,4.94,3.97,-4.61
7030,-12,25.5,-161.87,4.76,4.9,-4.95
7040,3.44,12.69,-163.44,4.59,7.03,-5.68
7050,24,8.5,-161.19,4.63,7.91,-5.95
7060,42.25,8.94,-158.87,4.69,8.72,-6.1
7070,53.81,7.25,-155.06,4.62,10.19,-5.43
7080,62.56,-1.31,-147.62,4.63,10.57,-5.01
7090,68.19,-20.44,-137.94,4.68,10.72,-4.64
7100,69,-50.69,-131.25,4.78,10.67,-4.55
7110,67.5,-90.37,-133.75,4.43,11.51,-5.63
7120,69.75,-125.5,-144.19,3.54,12.81,-6.95
7130,77.87,-146.5,-154.75,2.3,14.65,-8.34
7140,93.56,-156.69,-154.31,0.06,19,-9.56
7150,117.81,-176.44,-141.06,-1.84,20.42,-10.37
7160,137.37,-186,-99.87,-2.74,22.09,-12.08
7170,146.06,-177.12,-35.44,-3.29,22.32,-13.22
7180,147.81,-173.5,29.5,-2.74,19.39,-15.17
7190,137.75,-166.06,80.75,-2.16,16.47,-16
7200,120.25,-152.94,110.62,-1.57,14.04,-15.77
7210,113.87,-150.56,125.25,-0.93,10.5,-14.81
7220,119.81,-155.25,130.62,-0.92,9.06,-15.04
7230,123.75,-160.94,132.19,-0.96,7.89,-15.35
7240,116.56,-175.25,133.75,-1.5,6.05,-16.48
7250,104.12,-194.31,136.44,-1.99,5.3,-16.98
7260,95.87,-213.06,144.44,-2.42,4.52,-17.39
7270,97.75,-216.44,155.44,-2.28,3.33,-18.22
7280,105.5,-191.12,160.5,-1.25,0.24,-20.53
7290,97.62,-156.37,158.94,-0.66,-1.55,-20.88
7300,69.69,-117.31,145.06,-0.4,-3.08,-20.04
7310,42.75,-91.12,124.5,-1.18,-5.48,-15.26
7320,40.06,-96.5,105.69,-1.41,-6.76,-13.62
7330,56.38,-138.75,82.81,-1.47,-7.91,-14.06
7340,68.69,-185.31,51.94,-1.7,-8.62,-15.78
7350,73,-215.87,16.87,-2.86,-6.72,-18.96
7360,90.69,-219.81,-6.06,-4.23,-5.34,-19.97
7370,118.31,-205.62,-3.25,-5.22,-5.02,-20.97
7380,125,-191.87,15,-4.96,-7.45,-23.53
7390,95.75,-176.62,28.56,-4.55,-9.42,-23.67
7400,47.44,-168.31,25,-4.1,-11.27,-22.8
7410,15.06,-172.44,-0.44,-3.63,-12.41,-21.88
7420,12.81,-177.5,-41.38,-3.6,-12.74,-21.65
7430,33.19,-174.62,-90.25,-4.22,-11.57,-22.14
7440,64.31,-154.81,-132.81,-4.99,-9.91,-22.62
7450,96.94,-126,-158.37,-6.97,-6.15,-22.67
7460,117.69,-98.94,-162.69,-7.3,-5.06,-22.57
7470,110.06,-79.44,-152.12,-7.4,-4.81,-22.19
7480,77.37,-70.62,-137.5,-7.14,-5.64,-20.58
7490,35.19,-75.5,-128.44,-6.93,-6.61,-19.98
7500,0.06,-85.06,-133.87,-6.84,-7.1,-19.9
7510,-19.44,-86.75,-150.75,-7.33,-7,-19.68
7520,-18.5,-84.94,-171.5,-8.81,-4.67,-19.83
7530,0.75,-74.69,-185.87,-9.6,-3.19,-20.25
7540,19.19,-59.31,-188.19,-10.13,-1.95,-20.83
7550,14.63,-42.31,-177.69,-10.43,-0.71,-21.57
7560,-15.06,-27.37,-163.69,-10.27,-0.65,-20.92
7570,-47.13,-16.81,-153.69,-10.34,-0.53,-19.96
7580,-66,-11.25,-146,-10.64,-0.39,-19
7590,-73.44,-14.81,-138,-11.16,-0.32,-18.38
7600,-74.31,-24.87,-133.19,-11.66,0.15,-18.99
7610,-62.75,-31.87,-125.75,-12.26,0.68,-20.12
7620,-36.5,-28.75,-113.75,-12.87,1.23,-24.02
7630,-6.75,-3.25,-98.75,-12.73,1.23,-26.25
7640,5,48.38,-82.19,-12.48,0.91,-27.86
7650,-14.69,110.87,-64.62,-12.32,0.47,-27.85
7660,-53.19,155.5,-50.38,-12.06,0.12,-23.17
7670,-73.25,178.31,-39,-11.94,0.49,-20.99
7680,-65,186.81,-23.87,-11.39,0.2,-19.88
7690,-55.56,185.12,-14.13,-9.93,-0.49,-19.59
7700,-52.38,185.62,-11.81,-9.52,0,-19.47
7710,-46.44,194.25,-7.56,-9.08,0.3,-19.34
7720,-46.56,207.56,-1.06,-8.07,0.5,-18.37
7730,-58.69,220.12,5.31,-7.43,0.65,-17.44
7740,-74.19,228.37,13.44,-6.76,0.78,-16.22
7750,-84.75,234.25,22.44,-5.92,0.84,-14.73
7760,-92.5,232.56,30.87,-4.58,0.48,-11.68
7770,-99.12,221.94,38,-3.66,0.23,-10.22
7780,-99.94,205.31,41.88,-2.67,-0.14,-9.05
7790,-95.25,184.12,39.38,-1.28,-0.56,-7.07
7800,-86.25,161.62,33.13,-0.64,-0.51,-6.33
7810,-73.44,138.5,26.19,-0.03,-0.41,-5.54
7820,-53.38,115.25,18.56,0.51,-0.33,-5.06
7830,-31.69,90.44,8.5,1.31,-0.06,-4.94
7840,-12.56,72.87,-10.81,1.03,1.24,-4.94
7850,3.19,71.31,-27.75,0.28,2.9,-4.94
7860,14.69,71,-33.25,-2.29,5.97,-3.26
7870,20.87,11.56,-15.81,-2.7,7.1,-2.9
7880,29.5,-63.5,12.88,-4.05,8.27,-3.03
7890,47.38,-150.37,54.25,-5.2,8.91,-5.01
7900,71.31,-220.62,101,-5.85,6.99,-12.63
7910,94.25,-282.75,140.31,-6.64,5.21,-15
7920,118.56,-319.75,171.19,-6.91,3.81,-18.32
7930,146.56,-246.81,187.94,-6.03,-0.17,-24.71
7940,156.37,-193.12,196.31,-5.09,-2.06,-27.05
7950,136.5,-140.81,185.5,-4.73,-3.07,-28.05
7960,105.06,-96,166,-5.02,-2.27,-27.34
7970,96.75,-61.13,150.44,-5.79,-1.45,-26.79
7980,117.5,-34.56,155.75,-5.87,-1.78,-27.43
7990,128.31,-11,171.69,-5.63,-2.98,-28.45
8000,104.25,11.94,186.75,-5.05,-5.84,-29.47
8010,51.19,31.31,199.56,-4.62,-7.35,-28.93
8020,-13.69,37.94,204.06,-3.83,-8.64,-28.52
8030,-71.87,42.63,191.81,-2.73,-9.11,-26.86
8040,-104.06,54.69,170.56,-2.52,-8.43,-25.64
8050,-104.06,66.87,151.62,-2.24,-7.57,-24.65
8060,-75.5,82.5,133.94,-1.93,-6.25,-23.54
8070,-30.62,101.06,122.12,-2.09,-4.71,-21.96
8080,1.69,111.25,118.12,-1.96,-4.69,-21.81
8090,1.5,107.44,118,-1.82,-5.15,-21.86
8100,-20.37,96.94,116.31,-1.78,-5.86,-21.73
8110,-38.13,89.44,113.94,-1.74,-6.28,-22.21
8120,-49.56,89.31,110.31,-1.6,-6.9,-22.94
8130,-63.63,94.5,103.56,-1.44,-7.2,-23.34
8140,-74.69,104.12,95.19,-1.55,-7.17,-22.71
8150,-76.25,112.69,88,-1.5,-7.13,-22.59
8160,-76.25,112.69,88,-1.5,-7.01,-22.7
8170,-69.75,132.69,71.87,-1.55,-6.83,-22.85
8180,-68.19,151.44,67.06,-1.39,-6.95,-22.69
8190,-72.12,174.06,63.31,-1.06,-7.22,-22.26
8200,-84.19,196.37,57.75,-0.66,-7.92,-19.6
8210,-84.19,196.37,57.75,-0.21,-8.04,-18.07
8220,-96.69,210.62,47.94,0.4,-8.31,-17.09
8230,-98.19,206.19,18.19,0.88,-8.34,-16.37
8240,-82.37,207.62,-2.87,1.46,-7.57,-14.28
8250,-57.88,206.25,-22.25,1.85,-7.16,-13.6
8260,-57.88,206.25,-22.25,2.13,-6.79,-13.23
8270,-35.56,199.81,-40.38,2.32,-5.95,-12.57
8280,-22.25,181.94,-69.19,2.51,-5.63,-12.3
8290,-29.5,171.62,-78.5,2.73,-5.29,-11.85
8300,-39.88,161.37,-85.44,3,-5.21,-11.36
8310,-39.88,161.37,-85.44,3.25,-5.05,-10.23
8320,-49.69,149.44,-95.37,3.5,-4.57,-9.35
8330,-39.38,125.37,-120.81,3.59,-4.07,-8.93
8340,-22.44,114.12,-131.25,3.98,-3.26,-8.56
8350,-9.63,105.06,-142.56,4.01,-2.68,-8.33
8360,-9.63,105.06,-142.56,4.03,-2.04,-7.97
8370,-3.19,96.69,-152.62,3.89,-1.37,-7.54
8380,2.81,79.44,-173.37,3.16,0.97,-6.57
8390,11.06,75.06,-181.56,3.27,2.64,-5.67
8400,28.12,71.5,-179.56,2.64,3.93,-5.24
8410,28.12,71.5,-179.56,2.64,4.97,-5.73
8420,40.25,61.94,-163.31,2.64,4.97,-5.73
8430,11.44,26.37,-126.69,3.42,4.5,-4.48
8440,-10.06,-38.5,-122.5,3.84,4.61,-4.24
8450,-14.38,-73.12,-124.19,3.77,4.95,-4.21
8460,-14.38,-73.12,-124.19,3.77,4.95,-4.21
8470,5.31,-98.81,-128.44,3.82,5.44,-5.04
8480,64.75,-118,-146.75,2.38,8.47,-7.79
8490,80,-124.81,-151.06,1.63,9.9,-8.46
8500,83.62,-137.25,-148.81,0.83,11.46,-9.01
8510,83.62,-137.25,-148.81,0.83,11.46,-9.01
8520,84.94,-157.69,-135.87,-0.23,13.9,-10.52
8530,103.19,-210.62,-100.37,-1.53,15.14,-13.1
8540,116.19,-231.75,-89.62,-2.76,16.06,-14.3
8550,138.19,-244.19,-77.25,-5.29,18.94,-17.4
8560,138.19,-244.19,-77.25,-5.29,18.94,-17.4
8570,172.31,-225.12,-52.63,-6.83,19.9,-19.46
8580,192.69,-151.25,52,-7.84,17.92,-24.16
8590,146.5,-113.56,117.06,-7.23,15.17,-23.94
8600,146.5,-113.56,117.06,-6.64,12.37,-21.92
8610,70.31,-91.19,171,-6.64,12.37,-21.92
8620,12.38,-86.19,209.19,-5.66,7.65,-17.85
8630,-0.75,-90.75,239.06,-4.17,2.28,-17.52
8640,6.87,-96.31,258.12,-3.42,0.08,-17.5
8650,3.31,-97.81,261.81,-2.58,-3.24,-15.44
8660,-15.25,-96.12,252.12,-2.58,-3.24,-15.44
8670,-35.56,-100.94,236.19,-2.89,-4.3,-13.73
8680,-42.44,-123.56,217,-3.48,-6.88,-12.48
8690,-32.44,-163.81,196.56,-3.97,-7.63,-13.44
8700,-14.56,-207.06,174.37,-4.76,-8.21,-15.21
8710,3,-249.75,151.06,-4.76,-8.21,-15.21
8720,14.75,-281,128.12,-5.38,-8.71,-16.86
8730,21.5,-297.94,103.31,-6.39,-9.63,-22.02
8740,25.12,-292.44,74.87,-6.69,-9.77,-23.12
8750,25.31,-271.12,46.31,-7.35,-9.49,-23.95
8760,20.19,-237.87,16,-7.35,-9.49,-23.95
8770,11.75,-197.94,-14.13,-8.02,-9.1,-22.96
8780,2.06,-168.62,-38.63,-8.78,-8.29,-20.3
8790,0.69,-154.25,-59.38,-9.03,-7.81,-19.32
8800,10.44,-150.06,-76.19,-8.85,-8.24,-20.25
8810,21.31,-154.75,-88.31,-8.85,-8.24,-20.25
8820,20.87,-153.12,-105.56,-8.79,-8.49,-21.27
8830,17.37,-137.37,-128.19,-9.92,-7.56,-20.81
8840,25.62,-108.37,-153.81,-10.53,-7.05,-19.56
8850,49.06,-75.94,-179.19,-12.03,-4.37,-17.44
8860,86.75,-52.88,-204.19,-12.03,-4.37,-17.44
8870,132,-49.44,-218.12,-12.8,-3.82,-18.44
8880,146.75,-67.81,-214.69,-13.69,-4.32,-21.74
8890,105.5,-94.62,-205.56,-15.03,-5.92,-23.57
8900,51.31,-117.25,-196.06,-15.47,-7.3,-25.11
8910,35.31,-125.75,-195.12,-15.47,-7.3,-25.11
8920,58.88,-117.12,-213.81,-15.99,-8.15,-27.04
8930,107.31,-80.12,-252.87,-19.27,-4.63,-32.44
8940,155.75,-23.19,-291.31,-20.31,-2.14,-33.52
8950,176.87,35.69,-312.31,-21.04,0.37,-33.96
8960,158.69,95.31,-300.5,-21.04,0.37,-33.96
8970,99.37,154.56,-251.69,-20.54,3.23,-33.24
8980,2.44,217.44,-179.87,-17.93,1.35,-26.62
8990,-109.5,274.87,-105.56,-14.38,-2.2,-18.57
9000,-203.37,306.75,-44.75,-12.6,-3.38,-15.59
9010,-255.31,324.62,-6.06,-12.6,-3.38,-15.59
9020,-258.44,336.62,10.63,-10.79,-4.16,-13.24
9030,-229.06,344.5,8.5,-6.7,-3.67,-7.67
9040,-183.81,346.25,-5.19,-5.75,-2.69,-6.51
9050,-135.75,339.75,-22.5,-4.88,-1.67,-5.67
9060,-96.75,323.87,-34,-4.88,-1.67,-5.67
9070,-75.37,303.44,-36.25,-3.38,-0.46,-4.35
9080,-69.06,284.69,-31.94,-1.54,-0.28,-3.95
9090,-71.19,267.81,-23.06,-0.1,-0.77,-1.03
9100,-68.75,234.75,-14.88,0.27,-0.29,-0.5
9110,-58,152.12,-15.19,0.27,-0.29,-0.5
9120,-48.38,98.81,-19.81,0.38,0.06,0.26
9130,-31.94,25.62,-22.25,-0.47,2.39,-6.05
9140,-10.5,-52.31,-24.44,-0.47,2.39,-6.05
9150,10.44,-106.44,-25.37,-1.17,3.47,-9.12
9160,32.06,-128.44,-18.44,-1.85,4.46,-10.61
9170,56.5,-132.19,-1.19,-2.58,5.28,-12.95
9180,70.44,-108.56,20.75,-2.99,4.73,-13.72
9190,60.56,-98.06,41.69,-3.47,4.15,-13.95
9200,44.94,-134.31,54.94,-4.2,4.17,-14.28
9210,54.19,-195.31,65.31,-5.63,5.06,-18.92
9220,92,-190.37,77.12,-6.88,5.04,-21.66
9230,122,-173.56,99,-7.41,4.65,-25.42
9240,116.25,-135.75,128.81,-6.37,2.8,-29.97
9250,78.25,-76.25,160.06,-5.59,1.33,-29.66
9260,38,-11,179.31,-5.05,0.02,-27.44
9270,30.81,38,185.5,-4.49,-0.86,-24.54
9280,66.12,65.12,185.5,-3.36,-3.22,-21.34
9290,113.75,71.31,178,-3.06,-4.08,-21.5
9300,136.06,60.13,165.81,-3.32,-4.48,-22.56
9310,127,46.63,159.94,-4.15,-4.28,-24.52
9320,110.87,41.63,167.62,-4.14,-4.96,-25.51
9330,98.81,53.38,184.37,-3.64,-6.37,-26.39
9340,82.94,85.69,197,-2.75,-8.14,-26.54
9350,63.25,129.94,195.25,-0.91,-10.92,-23.52
9360,51.38,168.19,177.94,-0.74,-11.26,-20.85
9370,58.38,190.31,154.69,-1.82,-11.12,-18.42
9380,65.87,180.25,143.94,-2.96,-11.83,-18.07
9390,32.31,134.19,154.06,-2.38,-13.46,-20.6
9400,-54.88,85.69,169.81,-2.39,-14.92,-22.42
9410,-135.94,60.75,179.31,-1.32,-16.82,-23.4
9420,-164.75,65.62,179.69,-0.89,-17.71,-23.75
9430,-154.5,99,161.25,-0.34,-18.29,-23.76
9440,-128.19,146.69,124.19,-0.34,-18.5,-23.11
9450,-94.81,195.31,79.44,-1.14,-17.31,-19.22
9460,-55.88,228.44,41.56,-1.37,-16.84,-17.76
9470,-25.87,237.31,12.63,-1,-16.69,-16.91
9480,-27.06,223.12,-11.25,-0.52,-16.17,-16.22
9490,-56.06,194,-29.94,-0.05,-15.81,-16.42
9500,-94.19,169.87,-45.94,0.29,-15.5,-16.36
9510,-116.25,161.69,-62,0.95,-15.21,-16.12
9520,-112.56,170.87,-82.69,1.79,-15.42,-15
9530,-97.19,190.75,-113.12,2.09,-14.94,-13.96
9540,-79.12,213.12,-150.5,2.06,-13.92,-12.52
9550,-59.63,228.12,-188.56,0.93,-10.17,-8.63
9560,-35.81,224.62,-219.06,0.94,-7.66,-7.28
9570,-11.5,197.06,-230.62,0.63,-5.82,-6.67
9580,3.75,154,-222.69,1.2,-4.59,-6.69
9590,3.31,113.81,-212.31,1.63,-2.68,-7.66
9600,-12.88,91.75,-204.25,1.63,-1.41,-7.34
9610,-37,72.87,-185.06,1.75,-0.69,-7.11
9620,-68.31,41.88,-154.25,3.42,-2.65,-7.46
9630,-110.25,8.06,-133.69,4.1,-3.95,-7.46
9640,-147.69,-18.31,-138.69,4.7,-4.26,-7.27
9650,-158.94,-34.5,-159.56,3.78,-2.47,-6.37
9660,-130,-34.31,-189.5,2.78,-0.38,-5.98
9670,-69.69,-30.75,-207.12,1.96,1.16,-6.37
9680,-17.06,-33.06,-212.06,1.65,2.53,-7.37
9690,1.12,-39.88,-207.06,1,4.88,-8.11
9700,-1.87,-49.44,-197.75,0.76,6.02,-7.89
9710,-3.5,-61.81,-181.44,0.62,6.81,-7.72
9720,4.5,-80.44,-157.06,1.57,6.26,-9.7
9730,11.75,-90.25,-140.94,1.87,6.1,-10.45
9740,13.75,-92.37,-142.56,1.49,6.81,-10.64
9750,24.37,-94.19,-152.56,0.84,8.07,-10.7
9760,47,-103.37,-162.25,-0.55,11.27,-12.23
9770,74.44,-113.19,-168.31,-1.43,13.24,-13.15
9780,105.31,-113.94,-162.81,-2.43,15.15,-14
9790,139.25,-106.75,-138.69,-3.44,17.8,-16.54
9800,164.87,-90.69,-95,-3.43,17.75,-17.87
9810,162,-69.5,-44.75,-3.22,17.11,-18.54
9820,128.69,-52.88,0.19,-2.97,15.67,-16.99
9830,88.31,-49.63,36.69,-3.14,14.97,-15.73
9840,68.94,-55.69,66.06,-3.25,14.2,-15
9850,72.69,-62.88,93.75,-3.32,13,-14.97
9860,78.25,-69.62,119.62,-2.98,10.25,-15.65
9870,74.19,-72.12,144.19,-2.77,8.84,-15.29
9880,71.44,-70.44,167.75,-2.38,7.09,-15.28
9890,72.25,-63.63,188.5,-1.55,3.17,-13.98
9900,70.75,-61.69,204.44,-1.37,0.96,-13.56
9910,61.13,-74.06,215.06,-1.37,-1.12,-13.28
9920,42.88,-97.81,214.06,-1.31,-2.71,-13.05
9930,25.56,-128.94,206.25,-1.63,-5.14,-13.61
9940,12.38,-167.12,193.81,-1.97,-6.04,-14.79
9950,-0.81,-210.81,176.75,-2.25,-6.43,-16.32
9960,-4.56,-242.25,153.37,-2.96,-5.5,-19.49
9970,15,-242.19,132.75,-3.4,-5.46,-20.66
9980,46.75,-219.44,121.69,-3.53,-5.92,-21.83
9990,60.88,-186.62,113.44,-3.61,-6.58,-22.49
10000,39.81,-160.19,107.19,-2.81,-8.57,-21.04
