timestamp,gyrox,gyroy,gyroz,accx,accy,accz
10,2.31,-4.56,2.69,0.00,0.00,0.00
20,0.44,-4.87,1.25,0.00,0.00,0.00
30,-5.19,-5.12,0.06,0.00,0.00,0.00
40,-8.31,-7.19,1.12,1.80,-0.97,-19.00
50,-11.44,-9.94,3.81,1.64,-0.74,-19.21
60,-11.69,-10.25,6.75,1.55,-0.57,-19.27
70,-5.94,-8.50,9.63,1.53,-0.53,-19.40
80,-30.50,-152.69,85.31,-1.09,-3.93,4.72
90,-18.00,-161.12,79.75,-0.54,-5.60,3.26
100,-5.12,-167.31,71.50,0.18,-7.49,1.12
110,4.94,-174.94,61.81,0.92,-8.34,-0.39
120,13.31,-179.87,49.31,0.92,-8.34,-0.39
130,22.62,-179.56,33.81,1.51,-9.44,-1.95
140,27.19,-176.37,14.63,2.85,-13.21,-9.12
150,22.50,-161.94,-13.75,2.61,-13.22,-10.17
160,18.06,-136.19,-47.31,2.34,-12.90,-11.67
170,18.87,-111.19,-78.62,2.34,-12.90,-11.67
180,18.12,-84.37,-107.94,1.40,-11.85,-14.93
190,20.25,-47.25,-137.94,-0.61,-7.67,-14.89
200,28.25,-13.06,-158.44,-1.11,-5.65,-15.12
210,35.13,17.81,-169.19,-1.84,-1.86,-14.07
220,40.94,52.88,-176.94,-1.84,-1.86,-14.07
230,40.44,87.44,-182.12,-2.88,1.06,-12.40
240,38.31,115.87,-176.37,-3.81,4.01,-9.87
250,32.69,130.44,-158.56,-4.77,7.71,-6.07
260,11.19,128.94,-134.31,-4.90,8.39,-5.48
270,-17.44,128.94,-111.69,-5.27,9.27,-4.65
280,-38.13,131.44,-87.50,-5.52,10.24,-3.51
290,-46.31,135.12,-60.69,-5.51,11.28,-2.14
300,-46.25,144.50,-33.69,-5.70,11.58,-0.76
310,-41.38,150.50,-4.19,-5.62,11.55,0.99
320,-41.19,148.31,24.69,-4.65,9.81,3.10
330,-50.75,142.44,48.63,-4.31,8.82,4.47
340,-57.94,132.25,69.25,-4.10,7.92,5.77
350,-64.25,117.62,87.06,-3.38,5.60,8.22
360,-74.31,96.19,100.31,-2.86,4.27,9.68
370,-78.37,68.75,109.62,-2.31,3.07,10.26
380,-77.87,45.00,113.69,-1.91,2.34,10.50
390,-74.69,22.75,115.44,-1.32,1.59,12.85
400,-63.31,-2.94,116.87,-1.30,0.98,14.28
410,-46.50,-38.19,118.37,-1.07,-0.07,15.39
420,-30.62,-80.25,115.94,-0.54,-2.85,14.32
430,-23.06,-120.37,107.37,-0.64,-3.67,13.28
440,-14.38,-154.19,97.62,-0.63,-4.46,11.74
450,-1.50,-179.00,88.00,-0.41,-5.41,9.39
460,15.56,-190.31,77.19,-0.16,-7.34,6.15
470,34.38,-196.69,66.19,0.07,-8.44,4.82
480,46.50,-206.37,54.38,0.60,-10.31,2.42
490,40.00,-212.12,35.38,1.46,-14.11,-4.87
500,23.06,-202.69,5.87,2.10,-15.27,-8.13
510,11.44,-179.12,-31.62,2.01,-15.71,-11.30
520,9.81,-138.06,-71.44,1.42,-15.00,-13.53
530,20.19,-90.00,-106.50,0.18,-11.80,-14.52
540,30.25,-51.88,-133.37,-0.81,-8.96,-14.52
550,37.00,-21.12,-146.75,-1.48,-6.00,-14.34
560,36.25,4.56,-149.56,-1.63,-1.32,-14.72
570,27.44,33.56,-147.25,-1.79,0.80,-13.80
580,18.44,63.69,-141.69,-2.16,2.96,-11.98
590,14.56,87.62,-130.00,-2.80,5.95,-7.82
600,13.56,103.00,-114.00,-3.00,6.77,-6.12
610,8.38,109.44,-96.25,-2.99,7.04,-4.92
620,-6.06,110.44,-79.19,-2.98,7.21,-3.62
630,-24.87,105.37,-61.50,-2.54,6.81,-1.90
640,-38.94,100.62,-45.38,-2.20,6.12,-1.27
650,-41.44,98.19,-33.00,-2.04,5.49,-0.74
660,-37.94,96.94,-22.19,-1.60,3.75,0.29
670,-38.00,91.56,-14.25,-1.27,2.61,-0.04
680,-43.19,88.75,-11.81,-1.32,2.09,-0.02
690,-44.38,88.69,-10.38,-1.33,2.10,0.65
700,-39.38,87.31,-7.19,-1.24,1.71,1.55
710,-36.38,84.12,-3.62,-1.28,1.66,1.88
720,-37.88,77.81,0.50,-1.24,1.65,2.14
730,-43.75,68.75,5.62,-1.26,1.30,2.58
740,-51.00,57.94,11.06,-1.15,0.72,2.20
750,-56.44,50.75,14.13,-1.16,0.45,1.86
760,-54.94,49.25,16.37,-1.15,0.15,1.89
770,-49.63,48.19,17.44,-1.32,0.01,1.91
780,-43.44,47.88,18.81,-1.39,0.06,2.05
790,-38.06,46.00,20.37,-1.42,0.30,2.01
800,-33.69,45.00,23.94,-1.61,1.12,2.38
810,-28.44,44.81,29.94,-1.73,1.58,2.70
820,-27.87,42.63,38.13,-1.80,1.84,3.10
830,-34.63,36.19,47.06,-1.58,1.75,4.35
840,-40.56,27.75,54.88,-1.58,1.71,4.86
850,-41.06,19.81,62.00,-1.49,1.51,5.52
860,-38.75,11.13,67.75,-1.17,0.92,5.97
870,-32.31,3.81,69.37,-0.59,0.69,7.24
880,-23.31,-3.19,70.56,-0.48,0.70,8.00
890,-18.12,-15.50,72.69,-0.19,0.76,9.13
900,-10.13,-32.63,74.87,0.03,0.74,10.94
910,0.00,-54.81,78.19,0.19,0.02,11.24
920,8.94,-79.56,80.25,0.49,-1.21,11.49
930,19.69,-103.75,77.87,1.16,-2.65,11.11
940,32.81,-123.50,68.69,1.55,-5.61,10.55
950,46.25,-145.19,55.50,1.73,-6.77,9.54
960,55.00,-167.50,39.63,1.74,-8.06,8.67
970,57.50,-193.69,22.69,2.03,-12.30,4.58
980,49.00,-220.25,-1.44,2.03,-14.63,1.45
990,36.06,-237.44,-36.56,2.14,-16.87,-2.78
1000,14.44,-241.44,-81.69,1.88,-18.32,-9.38
1010,-3.69,-204.00,-134.81,-0.49,-16.22,-18.44
1020,8.69,-133.94,-184.31,-1.94,-12.82,-19.23
1030,43.25,-67.44,-217.06,-3.40,-8.56,-19.36
1040,72.12,-9.25,-229.19,-6.01,1.95,-18.47
1050,74.00,35.63,-215.75,-6.58,6.90,-17.46
1060,41.19,62.50,-180.75,-6.85,10.53,-16.38
1070,-10.25,84.25,-138.87,-6.44,14.46,-12.33
1080,-40.75,112.94,-98.12,-6.57,15.14,-9.16
1090,-45.31,135.81,-55.44,-6.41,14.79,-6.43
1100,-49.69,147.12,-16.75,-6.21,14.40,-3.62
1110,-53.19,146.00,19.12,-5.28,13.37,1.54
1120,-52.25,136.00,52.31,-4.79,12.22,2.86
1130,-56.25,120.69,81.50,-4.42,10.84,3.76
1140,-65.06,105.75,105.37,-3.02,7.26,5.53
1150,-71.50,91.75,122.75,-2.61,5.67,6.84
1160,-71.44,74.62,134.87,-2.06,3.91,7.82
1170,-69.37,53.88,140.56,-1.40,2.28,8.17
1180,-66.94,36.63,139.81,-0.79,0.36,9.98
1190,-61.13,17.87,138.69,-0.42,-0.33,11.68
1200,-48.63,-11.50,137.37,-0.02,-1.40,13.25
1210,-32.31,-47.94,131.19,0.30,-3.65,14.28
1220,-17.25,-89.19,123.25,0.33,-5.00,13.45
1230,-6.69,-128.00,111.25,0.53,-6.33,11.65
1240,-5.56,-159.75,95.12,0.53,-7.09,9.58
1250,3.37,-178.75,78.62,0.07,-8.36,7.30
1260,25.12,-191.19,63.94,0.30,-9.71,5.34
1270,34.75,-203.44,46.63,0.94,-11.31,2.39
1280,30.50,-205.25,22.81,1.23,-13.63,-1.37
1290,28.50,-204.37,-2.25,1.71,-15.74,-4.74
1300,14.25,-198.69,-36.06,2.02,-17.11,-9.53
1310,-3.62,-165.50,-82.50,0.53,-15.77,-14.31
1320,8.06,-110.31,-126.69,-0.35,-14.28,-14.85
1330,35.69,-56.13,-162.94,-1.50,-11.25,-14.96
1340,57.13,-13.13,-183.44,-2.74,-7.01,-15.10
1350,64.94,21.50,-183.44,-3.49,-0.60,-15.84
1360,51.69,53.63,-173.81,-3.36,1.39,-15.30
1370,34.19,87.12,-164.31,-3.69,3.40,-13.52
1380,31.12,116.44,-152.31,-4.55,6.74,-9.02
1390,34.69,135.12,-134.06,-4.54,7.44,-7.16
1400,36.81,144.69,-114.75,-4.54,7.80,-5.95
1410,29.50,149.56,-96.25,-4.76,8.39,-4.83
1420,16.69,149.69,-75.56,-4.65,9.77,-2.64
1430,2.44,147.69,-51.44,-4.69,10.19,-1.50
1440,-15.00,141.81,-24.06,-4.46,9.88,-0.23
1450,-32.19,131.87,1.19,-3.40,7.93,0.51
1460,-42.00,129.94,20.19,-3.43,7.42,1.64
1470,-46.25,128.25,38.00,-3.12,6.45,2.96
1480,-51.63,118.19,52.00,-2.54,5.01,3.85
1490,-55.56,107.00,58.13,-1.56,3.16,5.62
1500,-53.88,94.25,60.50,-1.39,2.71,6.43
1510,-48.13,79.25,62.25,-1.34,2.55,7.11
1520,-42.00,61.25,66.37,-0.91,2.16,8.72
1530,-38.00,37.19,70.81,-0.79,1.65,8.90
1540,-36.25,10.75,73.81,-0.52,0.98,8.45
1550,-37.06,-10.56,74.19,-0.04,0.35,7.08
1560,-34.38,-22.19,72.75,-0.10,0.46,6.79
1570,-26.19,-27.69,72.56,-0.26,0.46,6.87
1580,-17.50,-33.19,73.75,-0.18,0.21,7.10
1590,-12.31,-41.50,74.81,-0.82,0.38,7.95
1600,-8.88,-55.13,78.50,-1.11,0.15,8.16
1610,-9.06,-75.69,84.12,-1.18,-0.42,7.59
1620,-15.44,-96.12,86.81,-1.06,-1.45,5.14
1630,-21.94,-108.56,86.25,-0.92,-1.74,4.41
1640,-23.06,-112.94,84.06,-0.72,-2.18,4.05
1650,-18.31,-114.19,80.19,-0.63,-2.36,3.98
1660,-6.87,-115.62,77.62,-0.70,-2.51,4.27
1670,4.87,-119.50,76.19,-0.57,-3.14,4.03
1680,6.56,-127.00,73.12,-0.78,-3.60,4.20
1690,2.25,-141.62,70.12,-0.59,-5.32,3.53
1700,-3.75,-160.25,65.56,0.12,-6.76,2.16
1710,-10.56,-173.06,54.25,1.01,-8.33,1.04
1720,-12.94,-179.37,35.38,2.03,-9.84,-0.52
1730,-17.25,-179.31,9.69,2.44,-11.06,-4.90
1740,-15.31,-168.62,-18.19,2.30,-11.59,-6.11
1750,-1.19,-154.00,-46.56,2.25,-12.63,-7.76
1760,3.94,-141.12,-79.44,1.47,-13.02,-13.50
1770,-4.56,-119.87,-116.62,0.60,-11.84,-15.82
1780,-9.13,-86.00,-150.19,-0.39,-9.61,-18.15
1790,-5.87,-34.81,-172.62,-2.82,-3.24,-19.57
1800,-5.31,22.94,-181.00,-4.02,0.79,-17.89
1810,-5.31,70.25,-171.37,-4.88,3.90,-16.51
1820,-10.00,109.06,-150.69,-5.30,5.80,-15.58
1830,-23.62,147.19,-129.31,-6.54,9.00,-9.93
1840,-29.44,171.44,-103.00,-6.65,9.42,-7.25
1850,-25.25,182.12,-75.62,-6.88,10.07,-6.17
1860,-26.56,192.62,-48.25,-6.50,11.21,-3.03
1870,-33.88,194.81,-18.87,-6.20,11.05,-1.86
1880,-40.00,197.37,9.75,-6.14,10.95,-0.42
1890,-41.81,200.56,37.63,-5.75,10.33,1.47
1900,-46.38,195.87,62.19,-4.53,7.50,4.12
1910,-58.88,187.25,79.87,-4.33,6.61,6.12
1920,-71.31,171.81,94.19,-3.95,5.37,8.34
1930,-74.81,148.44,105.19,-2.47,2.18,11.16
1940,-74.81,122.12,109.19,-2.27,1.08,12.40
1950,-72.31,94.19,109.44,-1.99,-0.07,13.64
1960,-68.00,62.81,106.75,-0.84,-1.95,15.08
1970,-62.00,32.19,100.62,-0.46,-2.19,15.83
1980,-62.00,32.19,100.62,0.01,-2.50,16.74
1990,-38.13,-25.56,88.87,0.71,-3.12,17.94
2000,-25.69,-63.25,81.12,1.17,-4.55,19.24
2010,-9.44,-107.44,71.31,1.41,-5.34,18.12
2020,3.81,-151.69,58.25,1.16,-5.66,16.61
2030,16.56,-191.56,44.25,0.40,-6.90,11.69
2040,28.56,-228.56,29.50,0.07,-7.82,7.29
2050,34.88,-250.06,12.94,-0.02,-8.65,2.83
2060,35.81,-253.44,-4.50,-0.09,-9.67,-1.17
2070,30.00,-246.81,-23.94,-0.55,-11.19,-11.05
2080,30.00,-246.81,-23.94,-0.88,-11.05,-13.70
2090,25.12,-177.44,-68.31,-1.05,-11.00,-15.48
2100,36.81,-143.19,-89.00,-1.62,-9.99,-20.19
2110,43.81,-106.31,-110.12,-1.97,-8.15,-21.88
2120,43.81,-61.69,-125.25,-2.07,-5.77,-22.69
2130,43.81,-61.69,-125.25,-2.07,-3.10,-23.13
2140,37.06,-14.50,-131.06,-2.49,1.58,-19.34
2150,20.87,87.75,-115.31,-2.12,2.42,-15.99
2160,22.62,128.44,-105.44,-2.04,2.87,-12.28
2170,26.25,152.87,-99.50,-1.98,3.76,-4.85
2180,26.25,152.87,-99.50,-1.83,3.96,-3.33
2190,26.87,153.12,-93.00,-2.15,4.96,-2.38
2200,8.63,134.56,-78.44,-2.35,5.68,-1.55
2210,-1.31,125.06,-66.50,-2.42,5.93,-1.09
2220,-8.50,119.62,-55.25,-2.53,6.21,-0.75
2230,-8.50,119.62,-55.25,-2.53,6.21,-0.75
2240,-9.25,116.69,-42.00,-2.61,5.84,-0.46
2250,-20.87,116.69,-21.37,-3.12,6.03,-0.09
2260,-32.63,116.69,-9.06,-3.27,6.10,0.86
2270,-44.44,113.12,6.00,-2.78,5.03,2.61
2280,-44.44,113.12,6.00,-2.78,5.03,2.61
2290,-52.44,108.06,19.81,-2.49,3.99,4.31
2300,-55.44,90.94,38.69,-2.22,3.31,4.74
2310,-55.44,79.00,44.63,-2.08,2.56,5.04
2320,-55.38,68.50,50.38,-2.09,2.30,5.32
2330,-55.38,68.50,50.38,-2.09,2.30,5.32
2340,-57.94,55.75,56.56,-1.83,1.65,5.50
2350,-61.44,38.06,59.06,-1.43,1.18,5.53
2360,-55.19,34.69,60.25,-1.43,1.43,6.00
2370,-44.13,31.00,63.63,-1.51,1.59,6.46
2380,-44.13,31.00,63.63,-1.51,1.59,6.46
2390,-35.19,24.37,68.19,-1.89,2.10,7.67
2400,-31.75,-5.25,84.44,-1.84,1.02,8.12
2410,-36.38,-24.12,88.25,-1.85,-0.19,8.14
2420,-41.44,-43.38,88.44,-1.75,-0.53,8.19
2430,-41.44,-43.38,88.44,-1.75,-0.53,8.19
2440,-38.00,-61.50,88.19,-1.71,-0.84,7.73
2450,-22.19,-79.56,87.37,-1.61,-1.03,7.31
2460,-7.81,-84.75,89.94,-1.27,-1.49,7.34
2470,4.75,-89.87,91.25,-0.88,-1.92,7.66
2480,4.75,-89.87,91.25,-0.88,-1.92,7.66
2490,13.75,-96.94,90.94,-1.11,-2.70,8.88
2500,18.25,-141.44,93.25,-0.36,-6.48,9.43
2510,18.00,-174.12,82.94,0.10,-9.80,5.58
2520,18.00,-174.12,82.94,0.80,-11.88,3.41
2530,24.50,-193.69,66.44,0.80,-11.88,3.41
2540,39.38,-208.75,46.44,1.65,-14.10,-0.50
2550,44.75,-210.81,18.87,3.20,-18.98,-11.61
2560,38.31,-196.37,-13.44,3.25,-19.98,-14.44
2570,25.37,-174.37,-52.00,2.84,-20.37,-15.80
2580,21.19,-136.75,-97.75,2.84,-20.37,-15.80
2590,24.69,-96.44,-147.44,1.06,-17.58,-17.48
2600,24.06,-65.37,-194.75,-1.49,-9.24,-18.97
2610,24.37,-32.31,-230.94,-3.22,-3.91,-19.02
2620,28.87,7.94,-252.56,-5.45,4.74,-17.68
2630,34.31,49.25,-253.12,-5.45,4.74,-17.68
2640,30.12,86.94,-240.75,-6.67,8.79,-16.05
2650,19.31,123.94,-217.06,-8.15,15.30,-9.11
2660,4.44,143.81,-178.75,-8.41,16.34,-7.40
2670,-21.44,149.87,-138.31,-8.49,17.22,-5.44
2680,-50.44,154.31,-99.69,-8.49,17.22,-5.44
2690,-66.81,155.44,-58.00,-8.45,17.40,-4.09
2700,-69.81,160.56,-16.56,-6.94,14.11,0.31
2710,-69.56,166.75,20.19,-6.69,12.85,1.96
2720,-67.94,169.50,52.13,-5.63,9.87,5.60
2730,-66.25,166.87,81.94,-5.63,9.87,5.60
2740,-62.81,159.00,108.19,-4.84,7.55,7.10
2750,-62.25,143.62,124.81,-3.11,2.54,10.53
2760,-68.94,123.94,132.12,-3.05,1.90,11.03
2770,-72.00,97.44,133.50,-2.86,1.51,11.61
2780,-68.75,71.00,133.12,-2.86,1.51,11.61
2790,-56.13,49.31,134.62,-2.79,1.16,12.36
2800,-41.38,27.31,137.81,-1.78,-1.18,14.59
2810,-33.13,-1.94,140.69,-1.51,-2.17,14.68
2820,-26.75,-34.00,141.81,-1.23,-5.09,14.56
2830,-19.00,-66.44,140.25,-1.23,-5.09,14.56
2840,-8.31,-99.75,134.87,-0.97,-6.41,13.90
2850,1.81,-132.75,125.00,-0.76,-8.71,11.97
2860,9.88,-162.69,114.81,0.34,-12.46,6.94
2870,10.94,-192.81,100.75,0.43,-12.45,4.69
2880,2.06,-214.31,76.69,0.43,-12.45,4.69
2890,3.94,-217.62,51.81,0.52,-12.56,3.70
2900,24.69,-217.25,31.00,1.99,-16.42,-4.98
2910,36.31,-219.75,5.19,2.18,-16.25,-7.26
2920,27.06,-208.44,-28.69,1.89,-15.90,-9.90
2930,23.81,-183.50,-64.25,1.89,-15.90,-9.90
2940,30.44,-161.87,-98.37,1.55,-14.83,-11.94
2950,29.31,-138.19,-132.06,0.42,-11.58,-14.72
2960,29.37,-112.06,-161.25,-1.32,-6.74,-18.97
2970,29.94,-83.12,-184.94,-1.85,-3.67,-19.15
2980,21.94,-41.31,-201.06,-1.85,-3.67,-19.15
2990,17.37,5.81,-207.56,-2.65,-0.16,-17.90
3000,22.00,47.81,-200.87,-4.14,6.91,-13.49
3010,19.56,79.12,-186.37,-4.60,8.18,-12.69
3020,4.50,99.31,-168.25,-5.26,9.89,-11.78
3030,-18.87,115.06,-147.31,-5.26,9.89,-11.78
3040,-37.31,134.69,-120.12,-5.88,12.09,-8.12
3050,-50.13,145.56,-85.94,-5.67,11.34,-5.97
3060,-57.88,156.00,-50.94,-5.20,9.36,-2.45
3070,-63.13,168.44,-22.75,-4.86,8.20,-0.70
3080,-63.69,176.19,0.56,-4.86,8.20,-0.70
3090,-63.31,177.00,19.12,-4.35,6.84,1.04
3100,-65.75,168.19,32.94,-3.69,5.48,2.52
3110,-66.69,156.69,40.75,-2.83,3.31,3.75
3120,-72.37,145.87,45.75,-2.59,2.30,4.86
3130,-75.25,130.81,50.13,-2.33,1.31,5.64
3140,-72.87,115.19,51.00,-1.36,-0.54,6.60
3150,-69.31,98.56,47.75,-1.04,-1.07,7.02
3160,-64.06,81.00,41.06,-1.02,-1.25,7.29
3170,-54.69,63.44,35.50,-1.04,-1.18,7.29
3180,-45.13,46.13,33.19,-0.86,-0.91,6.25
3190,-35.94,36.19,31.56,-0.79,-0.64,6.28
3200,-24.44,26.87,32.19,-0.79,-0.43,6.04
3210,-16.81,18.87,33.06,-0.58,-0.39,4.92
3220,-17.94,12.50,31.06,-1.05,0.48,4.71
3230,-20.50,7.87,31.44,-1.55,1.34,4.74
3240,-17.31,4.25,38.63,-1.70,1.28,4.40
3250,-16.50,0.69,45.63,-2.14,1.35,4.84
3260,-16.69,-4.44,52.00,-2.09,0.96,4.99
3270,-16.12,-13.75,56.13,-2.22,0.87,4.56
3280,-16.12,-21.50,58.25,-3.13,2.12,4.11
3290,-11.13,-26.12,65.87,-3.10,2.04,3.87
3300,-3.81,-29.00,75.62,-2.92,1.81,3.83
3310,0.19,-31.12,84.12,-2.48,0.99,4.01
3320,0.75,-32.94,89.62,-2.34,0.71,4.55
3330,0.31,-36.44,94.00,-2.19,0.42,5.55
3340,1.75,-43.63,98.00,-1.81,-0.12,6.51
3350,6.62,-52.75,99.75,-1.39,-0.88,7.93
3360,9.38,-62.75,98.87,-1.34,-1.15,9.31
3370,14.94,-80.50,98.19,-1.17,-1.83,10.38
3380,19.00,-108.87,95.37,-0.84,-4.34,9.57
3390,17.37,-138.31,88.75,-0.64,-5.07,8.32
3400,10.69,-160.75,79.62,-0.46,-5.75,7.61
3410,14.06,-174.50,70.87,0.20,-8.07,6.27
3420,24.87,-188.94,62.56,1.17,-9.74,4.34
3430,30.19,-200.69,49.19,2.15,-11.81,1.79
3440,27.62,-205.81,25.50,2.70,-12.91,-0.96
3450,25.56,-199.19,-3.00,2.44,-14.57,-4.76
3460,29.81,-192.37,-30.00,2.58,-16.59,-8.32
3470,23.87,-186.75,-63.06,2.24,-17.23,-12.51
3480,9.63,-165.81,-101.75,0.69,-15.42,-17.09
3490,7.19,-134.44,-136.69,0.15,-13.60,-19.38
3500,6.81,-99.44,-167.00,-0.51,-10.96,-21.39
3510,-6.62,-60.75,-189.00,-1.33,-7.95,-22.53
3520,-23.94,-17.44,-200.19,-2.51,-2.44,-22.15
3530,-31.81,37.25,-207.06,-3.35,0.22,-19.57
3540,-21.25,88.81,-207.25,-4.22,2.91,-17.26
3550,-9.81,128.50,-204.00,-6.71,10.38,-12.54
3560,-9.44,160.25,-191.19,-7.58,13.75,-9.28
3570,-21.69,170.94,-160.69,-8.14,15.73,-7.33
3580,-49.69,164.00,-118.69,-8.29,16.63,-6.38
3590,-79.69,161.69,-74.62,-7.90,16.37,-4.26
3600,-96.44,167.31,-30.94,-7.42,14.97,-2.64
3610,-94.87,176.44,7.12,-7.02,13.32,-0.84
3620,-83.50,184.44,37.75,-5.96,10.16,2.75
3630,-77.31,183.25,63.50,-5.39,8.33,4.60
3640,-71.06,177.19,82.69,-4.84,6.48,5.99
3650,-67.62,165.62,95.00,-4.39,4.89,6.97
3660,-73.12,147.00,102.44,-3.38,2.40,8.89
3670,-75.12,126.94,106.62,-3.22,1.59,9.40
3680,-72.37,107.75,108.81,-3.00,0.88,9.84
3690,-70.12,87.31,109.37,-2.50,0.02,11.16
3700,-62.19,70.50,109.06,-2.27,-0.59,12.38
3710,-45.56,52.94,109.75,-1.79,-1.54,13.54
3720,-26.31,29.25,107.75,-1.47,-2.73,14.60
3730,-10.00,1.56,102.69,-1.62,-2.94,14.52
3740,-1.25,-29.50,98.44,-1.78,-3.11,14.45
3750,5.25,-61.75,96.44,-1.80,-3.47,13.85
3760,6.00,-92.62,93.75,-1.62,-5.20,11.34
3770,-1.75,-117.44,86.62,-1.46,-5.37,10.65
3780,-3.62,-136.94,78.69,-1.46,-5.19,10.05
3790,7.12,-152.06,73.56,-1.24,-7.05,8.46
3800,17.37,-171.06,69.50,-0.84,-8.17,6.40
3810,13.00,-189.37,58.25,-0.62,-8.64,5.23
3820,10.00,-202.06,44.44,-0.40,-9.25,4.26
3830,10.00,-216.62,29.75,-0.05,-10.47,0.11
3840,6.81,-227.69,11.69,0.36,-11.44,-2.94
3850,-1.87,-227.12,-11.38,0.65,-12.26,-6.15
3860,-19.12,-217.12,-39.56,0.41,-11.66,-11.40
3870,-21.37,-189.94,-66.69,0.41,-10.78,-13.19
3880,-4.75,-150.87,-88.94,0.22,-9.82,-14.60
3890,12.81,-110.94,-105.37,0.17,-8.24,-15.39
3900,27.06,-75.06,-117.25,0.54,-7.77,-15.91
3910,29.81,-46.13,-129.00,0.59,-6.82,-16.05
3920,22.31,-18.19,-141.44,0.49,-5.64,-15.56
3930,14.50,7.87,-151.62,0.10,-3.20,-14.22
3940,10.81,34.69,-161.31,-0.26,-1.52,-13.35
3950,18.00,69.56,-170.25,-1.12,0.61,-11.30
3960,26.81,94.12,-171.56,-3.00,4.87,-8.15
3970,21.94,104.19,-164.50,-3.47,6.47,-7.09
3980,3.75,104.62,-150.12,-3.82,7.56,-6.35
3990,-17.75,102.69,-133.44,-4.18,8.38,-6.01
4000,-36.81,104.50,-115.44,-5.13,10.74,-4.62
4010,-45.38,111.25,-93.50,-5.48,11.32,-3.72
4020,-45.13,117.50,-65.12,-5.37,10.90,-2.99
4030,-44.94,122.94,-39.81,-4.76,9.28,-1.50
4040,-45.13,129.44,-18.12,-4.41,8.04,-0.57
4050,-46.25,133.06,-0.37,-4.24,7.13,0.45
4060,-44.44,135.44,14.69,-3.97,6.42,1.65
4070,-38.00,134.31,29.31,-2.99,3.89,3.54
4080,-33.81,129.44,39.19,-2.65,2.80,4.45
4090,-31.62,119.81,45.50,-2.19,1.66,5.18
4100,-29.94,105.50,48.31,-1.24,-0.29,5.73
4110,-28.87,91.62,47.13,-1.21,-0.87,6.02
4120,-28.50,77.06,44.25,-0.88,-1.43,6.23
4130,-25.69,60.94,40.44,-0.60,-1.81,5.01
4140,-23.12,49.81,33.25,-0.71,-1.21,4.67
4150,-16.75,46.44,28.75,-0.66,-0.67,4.35
4160,-10.63,43.75,28.06,-0.63,-0.26,3.87
4170,-9.75,43.94,28.62,-0.99,1.06,4.26
4180,-11.00,44.19,32.19,-1.09,1.32,4.94
4190,-10.88,39.63,37.88,-1.12,1.43,5.08
4200,-13.44,31.75,40.81,-1.91,3.10,5.61
4210,-13.06,23.75,45.94,-2.12,3.50,6.07
4220,-4.50,14.75,55.31,-2.27,3.74,6.08
4230,1.19,3.00,64.69,-2.71,4.01,6.08
4240,4.06,-9.56,76.06,-2.94,3.64,5.49
4250,6.00,-21.56,87.62,-3.08,3.41,5.08
4260,4.44,-30.00,98.50,-3.14,3.09,5.17
4270,8.13,-35.94,109.31,-2.84,1.58,5.13
4280,14.63,-38.38,116.50,-2.78,1.25,5.86
4290,20.31,-40.19,120.94,-2.76,0.78,6.85
4300,31.62,-45.44,124.75,-2.66,-0.04,7.70
4310,43.56,-54.00,126.00,-2.78,-1.69,9.52
4320,51.44,-70.81,126.19,-2.53,-2.74,10.05
4330,62.44,-95.19,124.44,-2.43,-3.70,9.06
4340,65.00,-119.69,119.87,-1.95,-4.95,5.98
4350,50.75,-141.69,112.94,-1.61,-5.31,4.76
4360,43.69,-157.19,107.44,-1.09,-6.05,3.20
4370,45.31,-163.25,102.19,0.12,-8.74,0.97
4380,45.63,-165.00,94.19,0.90,-10.28,-0.13
4390,40.75,-169.87,82.56,1.97,-12.15,-2.30
4400,22.44,-177.81,66.37,2.98,-14.12,-5.32
4410,-3.75,-175.00,40.13,3.61,-17.25,-8.56
4420,-16.75,-162.69,5.81,3.78,-18.52,-10.18
4430,-18.69,-151.19,-35.13,3.68,-18.89,-12.85
4440,-22.62,-132.37,-84.12,2.59,-15.79,-16.23
4450,-18.69,-103.44,-130.81,1.96,-13.26,-17.82
4460,3.69,-62.19,-168.56,1.28,-10.50,-18.63
4470,28.81,-12.31,-192.25,0.30,-7.72,-18.73
4480,30.75,30.19,-202.56,-1.22,-2.79,-17.20
4490,9.25,65.25,-206.44,-2.63,0.47,-14.90
4500,-12.25,96.25,-203.75,-3.90,3.38,-11.80
4510,-22.44,113.81,-190.06,-4.68,6.22,-8.67
4520,-36.50,120.00,-176.94,-5.38,8.64,-7.25
4530,-51.06,125.81,-163.62,-6.20,11.17,-5.94
4540,-56.44,132.62,-139.19,-6.58,12.81,-5.07
4550,-62.81,139.19,-106.75,-6.50,13.99,-3.13
4560,-68.00,148.37,-72.50,-6.42,13.74,-1.72
4570,-70.06,158.94,-39.50,-6.11,13.08,-0.06
4580,-71.62,162.62,-8.88,-5.30,11.25,3.09
4590,-70.00,162.50,19.62,-4.84,9.80,4.43
4600,-65.69,158.31,43.13,-4.34,8.15,5.48
4610,-64.44,151.31,61.69,-3.13,5.36,8.17
4620,-60.63,141.81,74.37,-2.80,4.01,9.13
4630,-49.94,128.81,82.37,-2.55,3.05,9.63
4640,-43.56,113.19,86.69,-2.18,2.41,9.81
4650,-43.31,95.69,89.56,-2.21,2.04,10.89
4660,-39.94,83.25,92.69,-2.54,2.12,12.64
4670,-32.13,65.19,100.75,-2.44,1.51,14.31
4680,-26.31,32.44,108.75,-1.61,-1.11,15.83
4690,-21.69,-8.69,109.37,-1.78,-1.89,15.59
4700,-22.56,-53.25,104.44,-1.92,-2.46,15.26
4710,-24.81,-98.81,98.81,-2.00,-2.78,14.37
4720,-20.56,-140.19,94.50,-1.92,-4.17,10.01
4730,-15.25,-171.75,89.87,-1.66,-4.65,7.66
4740,-7.81,-186.25,83.12,-1.66,-4.70,6.25
4750,5.56,-190.44,80.75,-1.18,-6.66,4.59
4760,14.31,-198.12,80.50,-0.64,-8.63,3.71
4770,10.63,-212.00,75.19,0.06,-11.27,2.45
4780,-7.87,-233.12,60.06,1.08,-13.97,-0.43
4790,-7.87,-233.12,60.06,1.32,-16.31,-7.42
4800,-40.06,-239.75,-8.50,1.40,-17.02,-11.29
4810,-32.69,-209.00,-49.69,1.34,-16.41,-14.11
4820,-14.19,-162.31,-90.81,0.49,-13.66,-16.50
4830,21.31,-108.69,-124.19,0.47,-11.92,-17.83
4840,40.81,-62.25,-152.31,-0.03,-9.27,-18.18
4850,45.56,-17.00,-173.50,-0.36,-6.53,-17.23
4860,52.94,22.06,-185.25,-1.26,-2.01,-15.57
4870,53.00,53.19,-193.12,-2.30,0.92,-14.79
4880,41.31,78.31,-194.56,-3.42,4.38,-13.75
4890,41.31,78.31,-194.56,-4.91,9.20,-10.77
4900,38.06,128.75,-160.06,-5.38,10.27,-10.19
4910,22.69,140.50,-131.50,-5.43,11.03,-9.10
4920,-0.50,153.75,-99.94,-4.67,10.37,-5.75
4930,-25.75,159.75,-69.31,-4.38,9.46,-4.40
4940,-25.75,159.75,-69.31,-4.21,8.74,-2.65
4950,-50.44,161.50,-44.19,-3.91,8.04,-0.90
4960,-62.44,161.62,-6.19,-3.33,6.68,1.40
4970,-61.38,157.81,8.69,-3.02,5.82,2.47
4980,-56.44,152.81,21.06,-2.76,4.98,3.32
4990,-56.44,152.81,21.06,-2.08,3.50,4.47
5000,-50.81,146.25,31.12,-2.00,2.73,5.16
5010,-59.69,122.69,45.38,-1.94,1.98,5.43
5020,-63.13,108.94,49.25,-1.91,1.47,5.64
5030,-65.12,94.94,51.75,-1.34,0.24,6.53
5040,-65.12,94.94,51.75,-1.27,-0.07,6.69
5050,-61.00,80.75,51.50,-1.14,-0.02,6.88
5060,-45.31,53.44,46.88,-1.24,0.65,7.10
5070,-35.19,40.88,47.06,-1.28,0.86,7.09
5080,-24.37,29.19,49.63,-1.37,1.11,6.88
5090,-24.37,29.19,49.63,-1.74,1.49,7.37
5100,-17.94,18.69,52.81,-1.67,1.30,6.99
5110,-12.19,-5.56,65.69,-1.82,1.21,6.81
5120,-12.25,-15.56,71.12,-1.99,1.11,7.13
5130,-13.00,-27.12,77.31,-2.19,0.34,7.57
5140,-13.00,-27.12,77.31,-2.26,-0.19,7.57
5150,-14.81,-42.44,82.75,-2.44,-0.40,7.03
5160,-19.69,-79.62,88.00,-2.56,-0.81,5.98
5170,-16.12,-90.69,90.50,-2.48,-1.13,6.00
5180,-4.19,-97.69,93.37,-2.14,-1.90,5.82
5190,-4.19,-97.69,93.37,-1.63,-2.74,5.91
5200,8.94,-101.81,94.94,-1.00,-4.25,7.11
5210,21.62,-115.25,88.56,-1.06,-5.21,7.70
5220,23.12,-132.19,83.81,-0.49,-6.35,7.87
5230,23.44,-155.44,75.12,0.54,-9.05,5.38
5240,23.44,-155.44,75.12,0.54,-9.05,5.38
5250,26.06,-176.94,58.06,1.02,-9.48,3.44
5260,28.56,-195.12,18.69,1.36,-10.17,0.49
5270,36.13,-197.31,3.06,2.50,-14.23,-5.01
5280,29.37,-199.56,-18.81,2.84,-15.87,-9.05
5290,29.37,-199.56,-18.81,2.84,-15.87,-9.05
5300,12.81,-187.50,-52.69,2.92,-16.69,-12.58
5310,-1.37,-111.75,-136.56,1.10,-13.74,-16.92
5320,13.19,-63.75,-177.87,0.07,-10.39,-16.54
5330,33.38,-23.37,-209.69,-1.22,-6.06,-16.46
5340,33.38,-23.37,-209.69,-1.22,-6.06,-16.46
5350,42.00,7.56,-226.37,-3.81,3.32,-16.28
5360,22.81,57.19,-207.44,-5.87,11.42,-16.37
5370,3.87,90.00,-175.31,-7.20,15.83,-12.26
5380,-6.44,123.50,-133.62,-7.19,16.25,-10.36
5390,-6.44,123.50,-133.62,-7.19,16.25,-10.36
5400,-25.31,139.19,-86.87,-6.77,15.64,-8.43
5410,-47.44,153.31,-45.13,-6.30,13.35,-1.88
5420,-65.06,160.56,-9.94,-5.73,11.70,-0.08
5430,-74.75,163.12,24.75,-4.93,9.78,1.75
5440,-80.06,160.69,56.50,-4.93,9.78,1.75
5450,-78.81,156.56,78.62,-3.95,6.63,5.08
5460,-77.50,147.81,96.75,-2.25,2.35,7.61
5470,-74.06,132.56,107.87,-1.72,0.51,9.44
5480,-76.12,110.62,107.69,-1.33,-0.28,9.84
5490,-78.06,88.19,103.94,-1.33,-0.28,9.84
5500,-70.69,64.50,100.87,-1.14,-0.86,9.80
5510,-61.44,45.63,95.62,-0.69,-2.05,12.51
5520,-50.69,27.50,90.69,-0.69,-2.58,13.03
5530,-37.19,4.69,87.25,-0.75,-3.04,13.64
5540,-26.81,-21.87,81.81,-0.75,-3.04,13.64
5550,-19.06,-52.94,75.62,-0.91,-3.58,13.30
5560,-13.88,-89.44,69.44,-0.53,-4.90,11.16
5570,-7.75,-122.25,64.94,-0.47,-6.10,7.98
5580,-2.06,-150.62,59.06,-0.27,-6.61,6.80
5590,2.50,-171.06,49.94,-0.27,-6.61,6.80
5600,12.50,-182.50,43.00,-0.13,-7.88,5.42
5610,21.00,-192.44,36.38,0.97,-11.75,1.36
5620,19.81,-201.00,24.75,1.66,-13.38,-0.66
5630,15.00,-208.75,9.38,2.04,-14.26,-3.47
5640,9.56,-217.50,-12.88,2.04,-14.26,-3.47
5650,3.37,-215.94,-44.19,1.56,-14.94,-8.06
5660,8.63,-198.75,-78.62,0.82,-13.95,-15.19
5670,16.31,-175.37,-115.94,0.08,-11.89,-17.84
5680,20.56,-134.56,-154.62,-2.58,-4.15,-16.55
5690,30.12,-73.62,-187.06,-2.58,-4.15,-16.55
5700,53.81,-15.00,-201.81,-3.23,-0.86,-15.90
5710,75.62,26.75,-195.19,-3.75,4.63,-14.07
5720,65.75,53.56,-182.06,-4.36,6.48,-12.52
5730,36.13,73.31,-170.19,-4.75,7.94,-11.08
5740,13.69,93.31,-155.94,-4.75,7.94,-11.08
5750,4.44,110.12,-136.87,-5.16,9.08,-10.48
5760,-3.19,127.62,-116.25,-5.31,11.15,-6.71
5770,-2.25,150.25,-91.06,-5.17,10.74,-5.50
5780,-0.13,165.06,-60.56,-4.75,9.88,-2.86
5790,-5.12,176.12,-32.31,-4.75,9.88,-2.86
5800,-13.88,184.25,-4.56,-4.41,8.71,-1.38
5810,-31.56,181.37,21.37,-2.72,3.95,2.38
5820,-57.69,171.00,40.94,-2.25,2.55,3.22
5830,-67.87,162.81,53.25,-1.80,1.59,4.58
5840,-62.00,159.37,58.00,-1.80,1.59,4.58
5850,-50.31,154.75,57.19,-1.46,0.65,5.67
5860,-40.06,141.94,53.19,-1.13,-0.28,6.54
5870,-37.06,124.37,46.38,-1.23,-0.23,6.86
5880,-39.81,105.37,41.25,-1.01,-0.45,7.39
5890,-40.00,86.44,40.44,-1.01,-0.45,7.39
5900,-36.94,68.19,40.38,-0.85,-0.65,7.40
5910,-31.81,48.81,40.19,-0.35,-1.31,5.58
5920,-26.12,32.38,37.94,-0.84,-0.07,4.15
5930,-23.00,24.19,32.88,-1.31,0.81,4.88
5940,-20.56,25.62,28.00,-1.31,0.81,4.88
5950,-14.31,28.12,30.19,-1.52,1.22,5.45
5960,-7.75,23.87,36.44,-1.59,1.44,5.97
5970,-6.81,15.94,41.88,-1.80,2.01,6.36
5980,-9.00,3.50,47.69,-2.00,2.42,6.35
5990,-8.00,-11.00,56.38,-2.04,2.33,6.06
6000,-6.87,-23.56,64.87,-2.08,2.04,5.07
6010,-6.56,-32.25,71.31,-2.15,2.02,4.84
6020,-3.81,-36.88,78.19,-2.05,1.84,4.55
6030,0.31,-39.63,85.56,-1.91,1.36,4.95
6040,2.75,-41.44,92.00,-1.77,1.13,5.56
6050,2.37,-45.69,98.06,-1.69,0.91,6.51
6060,2.87,-53.25,103.62,-1.64,0.57,7.39
6070,4.06,-64.56,108.56,-1.53,-1.10,9.57
6080,0.37,-82.81,110.50,-1.24,-2.03,10.38
6090,2.06,-108.50,107.81,-1.14,-3.16,10.63
6100,11.94,-134.94,101.00,-0.88,-4.72,9.11
6110,18.50,-164.69,91.87,-0.54,-5.57,6.86
6120,19.50,-191.56,82.25,-0.12,-6.37,4.41
6130,15.81,-206.75,70.50,0.29,-8.54,1.28
6140,17.37,-213.25,58.88,0.75,-10.20,-0.73
6150,20.44,-218.81,46.50,1.35,-12.41,-3.16
6160,11.69,-223.00,28.12,2.12,-15.09,-5.78
6170,-5.75,-224.06,-2.25,2.18,-18.59,-11.61
6180,-18.00,-214.50,-44.56,2.02,-19.08,-14.97
6190,-21.75,-194.87,-92.81,1.36,-18.26,-18.88
6200,-27.44,-159.12,-143.75,-0.84,-10.91,-22.56
6210,-22.25,-103.37,-183.69,-1.57,-6.66,-22.72
6220,4.94,-34.56,-204.62,-2.58,-2.38,-21.92
6230,28.62,29.37,-204.56,-3.18,0.93,-19.75
6240,32.75,79.31,-190.37,-3.98,5.38,-13.99
6250,18.62,110.06,-174.50,-4.66,7.45,-10.99
6260,-7.31,121.75,-157.25,-5.48,9.41,-8.80
6270,-31.06,121.62,-135.00,-6.08,11.97,-7.29
6280,-46.63,124.00,-109.06,-6.35,13.00,-6.73
6290,-56.13,136.44,-81.19,-6.75,13.96,-5.51
6300,-58.44,155.50,-48.75,-6.15,13.53,-1.63
6310,-55.31,170.31,-10.81,-5.52,12.10,-0.13
6320,-57.13,176.44,22.87,-5.22,11.06,1.67
6330,-61.13,177.56,51.00,-4.92,9.96,3.53
6340,-63.63,170.87,77.69,-3.56,6.45,6.69
6350,-72.12,157.69,99.12,-2.86,4.73,8.41
6360,-78.50,136.81,112.12,-2.39,3.22,9.28
6370,-75.94,114.19,117.75,-1.36,1.17,10.70
6380,-71.81,91.69,118.69,-1.00,0.67,11.03
6390,-67.25,68.06,117.50,-0.93,0.22,11.65
6400,-60.81,47.00,116.31,-0.72,-0.30,12.71
6410,-52.00,23.94,114.19,-0.28,-1.99,15.37
6420,-43.69,-10.25,111.44,-0.14,-2.99,15.77
6430,-33.75,-51.19,105.19,0.00,-4.04,15.29
6440,-26.19,-93.06,95.56,-0.18,-5.30,13.17
6450,-21.75,-128.56,84.00,-0.71,-5.71,12.38
6460,-8.75,-157.19,73.94,-0.45,-6.57,10.76
6470,5.62,-180.81,64.62,-0.49,-7.18,9.26
6480,14.69,-198.62,53.81,-0.69,-9.59,6.77
6490,19.69,-221.62,45.06,-0.02,-11.46,3.11
6500,12.38,-243.00,30.19,0.14,-12.63,-0.04
6510,3.50,-243.94,7.94,-0.02,-16.11,-4.34
6520,2.44,-239.31,-17.81,0.29,-17.76,-8.53
6530,-7.50,-233.69,-52.88,0.32,-17.82,-13.06
6540,-23.87,-207.37,-96.44,-0.57,-14.95,-17.74
6550,-29.75,-154.00,-138.94,-1.04,-12.58,-18.02
6560,-8.75,-89.87,-170.87,-1.41,-9.78,-17.83
6570,29.87,-25.25,-189.00,-1.39,-7.17,-17.29
6580,51.63,26.56,-196.00,-1.48,-3.03,-14.03
6590,51.06,64.25,-201.00,-2.09,-0.30,-12.00
6600,37.81,84.75,-203.31,-3.15,2.37,-10.32
6610,22.69,91.00,-198.62,-4.55,6.59,-8.82
6620,12.81,98.06,-188.69,-4.86,7.76,-9.08
6630,2.50,102.56,-170.75,-4.91,8.73,-9.63
6640,-12.44,113.62,-150.50,-5.22,9.90,-9.50
6650,-25.25,133.87,-127.12,-5.66,11.70,-6.88
6660,-30.62,154.69,-102.25,-6.36,12.80,-5.12
6670,-33.38,167.00,-69.75,-6.09,12.56,-3.84
6680,-41.50,167.37,-32.88,-4.75,9.16,-2.28
6690,-59.75,163.19,-4.50,-4.51,8.00,-0.84
6700,-69.12,164.19,15.06,-4.15,6.74,0.38
6710,-64.31,164.81,32.25,-3.38,5.05,1.45
6720,-56.63,163.12,40.81,-2.70,3.24,3.47
6730,-51.38,158.87,41.81,-2.75,3.03,4.51
6740,-53.31,147.75,43.94,-2.69,2.45,5.16
6750,-58.75,130.19,47.63,-2.16,1.48,5.32
6760,-64.75,114.25,51.31,-2.02,1.12,5.76
6770,-69.44,101.06,54.13,-1.87,0.73,6.61
6780,-65.19,87.81,55.75,-1.56,0.39,7.55
6790,-54.56,73.25,57.00,-1.46,0.25,7.51
6800,-47.75,56.81,57.50,-1.38,0.35,7.67
6810,-40.38,41.50,57.44,-1.46,0.55,7.67
6820,-30.06,28.25,58.50,-1.59,1.01,7.64
6830,-22.19,16.94,59.81,-1.77,1.32,7.64
6840,-16.44,5.00,63.50,-1.93,1.48,7.57
6850,-13.06,-6.31,69.31,-2.03,1.49,7.54
6860,-10.38,-17.50,77.06,-1.89,1.08,7.30
6870,-7.69,-27.75,85.00,-1.76,0.63,7.40
6880,-6.06,-36.31,91.06,-1.76,0.22,8.15
6890,-1.25,-48.56,95.94,-1.66,-0.84,8.15
6900,5.25,-63.50,98.75,-1.55,-0.90,7.61
6910,5.81,-78.37,100.81,-1.18,-1.19,6.96
6920,1.06,-90.12,103.19,-0.33,-2.40,6.31
6930,-4.94,-95.69,101.06,-0.74,-2.31,7.63
6940,-6.06,-99.69,97.19,-1.06,-2.45,8.97
6950,1.06,-114.87,95.19,-1.13,-3.13,9.23
6960,7.25,-139.50,92.44,-1.18,-4.35,7.83
6970,10.81,-163.62,85.69,-1.27,-4.31,6.84
6980,16.31,-182.00,77.75,-1.46,-4.25,6.14
6990,25.94,-193.06,71.56,-1.04,-7.13,4.75
7000,41.19,-207.00,67.25,-0.24,-9.68,1.95
7010,46.19,-224.50,57.19,0.67,-11.65,-1.89
7020,32.81,-233.56,36.94,0.98,-13.44,-7.21
7030,17.87,-223.87,11.25,1.13,-15.28,-8.55
7040,12.75,-205.06,-14.25,1.24,-17.63,-10.35
7050,5.31,-190.69,-47.81,1.79,-19.31,-13.43
7060,-12.44,-175.37,-94.81,-0.02,-16.50,-18.66
7070,-21.12,-136.62,-149.75,-1.02,-12.85,-18.97
7080,-5.19,-87.19,-190.62,-1.53,-9.79,-19.95
7090,18.37,-41.31,-215.06,-3.07,-3.17,-19.39
7100,26.81,4.56,-231.31,-4.18,0.89,-18.41
7110,21.25,39.00,-236.44,-5.19,5.13,-17.46
7120,12.88,75.50,-231.69,-6.78,9.98,-15.55
7130,13.88,111.12,-206.94,-8.05,15.89,-12.87
7140,2.19,132.31,-162.87,-8.02,16.80,-11.43
7150,-24.69,152.25,-113.56,-7.76,16.62,-9.09
7160,-50.81,172.00,-65.81,-6.58,14.20,-4.05
7170,-68.50,183.06,-23.25,-6.28,12.91,-1.71
7180,-74.44,191.56,11.56,-5.73,11.41,0.56
7190,-71.94,194.19,41.25,-5.22,9.66,2.41
7200,-65.06,190.06,65.00,-3.47,6.38,5.43
7210,-56.63,184.37,82.44,-2.82,4.66,6.43
7220,-55.19,172.62,92.31,-2.54,3.57,7.54
7230,-61.81,157.62,96.00,-1.76,1.69,9.10
7240,-64.87,137.56,99.62,-1.55,0.92,9.06
7250,-66.69,118.19,100.87,-1.46,0.62,9.03
7260,-68.94,104.06,100.31,-1.40,0.51,9.17
7270,-72.44,93.31,99.44,-1.75,0.30,11.12
7280,-77.75,80.75,100.37,-1.77,-0.43,13.01
7290,-76.50,59.69,103.94,-1.36,-1.48,14.35
7300,-68.00,29.00,104.44,-0.73,-2.87,15.88
7310,-58.81,-11.56,101.75,-0.53,-3.12,16.38
7320,-49.25,-55.88,93.25,-0.74,-3.31,16.74
7330,-29.69,-103.25,83.44,-1.40,-4.81,13.29
7340,-14.63,-152.00,72.81,-2.15,-5.04,11.85
7350,-8.19,-191.37,60.38,-2.46,-6.18,10.51
7360,9.38,-224.25,52.19,-1.93,-7.71,7.49
7370,24.62,-251.31,40.00,-2.35,-9.53,1.52
7380,27.69,-269.25,24.94,-1.76,-10.35,-1.85
7390,26.12,-278.62,11.88,-1.31,-11.50,-4.02
7400,27.87,-272.19,-3.12,0.11,-15.80,-9.24
7410,30.50,-262.94,-25.50,0.60,-16.27,-12.85
7420,20.31,-245.31,-59.69,0.47,-15.62,-15.76
7430,15.94,-203.31,-96.69,0.73,-14.88,-18.26
7440,19.62,-147.69,-130.12,0.02,-10.46,-20.32
7450,34.69,-78.44,-159.81,-0.45,-7.54,-18.57
7460,68.87,-6.19,-176.00,-0.71,-5.56,-16.93
7470,90.25,43.69,-181.75,-1.88,-0.83,-14.98
7480,71.00,71.25,-183.87,-2.85,1.92,-13.04
7490,44.00,92.00,-178.44,-3.61,4.18,-11.79
7500,24.44,105.69,-165.31,-5.09,7.63,-9.55
7510,8.38,119.69,-152.62,-5.33,8.65,-9.53
7520,8.69,130.94,-133.56,-5.66,9.68,-9.83
7530,12.38,152.00,-114.00,-6.13,10.95,-8.40
7540,18.50,180.37,-91.12,-6.00,12.16,-4.84
7550,23.81,199.25,-60.50,-5.56,11.97,-3.95
7560,8.88,204.62,-28.44,-5.55,11.37,-2.39
7570,-20.25,204.06,1.12,-4.37,8.67,1.08
7580,-42.81,197.69,29.25,-3.99,7.06,2.47
7590,-51.81,190.69,50.31,-3.29,5.12,3.52
7600,-53.13,181.75,64.12,-2.86,3.43,4.61
7610,-53.13,171.94,68.87,-1.75,1.64,6.70
7620,-53.00,157.87,69.00,-1.70,1.19,7.26
7630,-56.75,138.56,66.37,-1.68,1.05,8.12
7640,-56.50,117.31,64.62,-1.10,0.68,8.43
7650,-49.69,92.75,64.69,-1.15,0.51,8.27
7660,-43.31,71.31,64.00,-1.34,0.87,8.73
7670,-35.69,51.69,65.06,-1.29,0.77,8.62
7680,-28.87,28.69,69.19,-0.85,-0.02,7.05
7690,-28.25,12.94,68.37,-1.26,0.65,7.45
7700,-28.87,3.00,66.69,-1.26,0.76,7.43
7710,-25.94,-8.69,69.56,-1.62,1.49,7.40
7720,-22.69,-16.31,72.50,-1.64,1.46,7.99
7730,-16.44,-24.69,78.94,-1.48,0.97,8.19
7740,-12.00,-38.50,85.56,-1.32,0.02,8.12
7750,-14.38,-55.69,89.69,-1.35,-0.14,7.75
7760,-16.12,-72.75,92.69,-1.21,-0.59,7.06
7770,-14.31,-85.44,96.50,-0.87,-1.03,6.16
7780,-11.63,-90.44,98.75,-0.87,-1.15,6.34
7790,-6.75,-87.94,100.37,-0.86,-1.53,7.23
7800,0.37,-86.94,104.25,-0.71,-2.41,8.23
7810,7.94,-93.56,106.81,-0.97,-4.95,10.01
7820,9.69,-112.31,105.75,-0.83,-6.58,10.46
7830,7.06,-145.19,99.62,-0.65,-8.44,9.24
7840,9.94,-183.06,84.75,-0.88,-9.64,6.34
7850,9.94,-183.06,84.75,-1.02,-11.15,-0.34
7860,7.06,-216.25,63.69,-0.51,-12.27,-3.49
7870,15.50,-222.62,19.56,0.26,-13.77,-6.92
7880,9.50,-208.00,-4.06,1.54,-15.97,-10.87
7890,-4.50,-180.44,-33.06,1.78,-16.77,-11.15
7900,-4.50,-180.44,-33.06,1.95,-17.75,-11.02
7910,-8.63,-146.94,-66.06,1.97,-18.36,-11.48
7920,-5.37,-105.31,-146.44,0.32,-15.06,-13.73
7930,-3.19,-91.37,-194.50,-0.94,-11.43,-15.79
7940,8.00,-67.06,-234.94,-1.81,-7.68,-16.91
7950,8.00,-67.06,-234.94,-5.00,2.16,-15.96
7960,14.13,-29.12,-262.69,-6.00,6.45,-15.10
7970,21.75,44.69,-260.69,-6.93,9.83,-13.75
7980,16.69,78.06,-239.75,-8.24,14.29,-12.26
7990,8.38,97.00,-207.75,-8.55,16.34,-11.32
8000,8.38,97.00,-207.75,-8.55,16.34,-11.32
8010,-8.75,117.69,-172.00,-8.82,19.10,-7.34
8020,-43.94,157.62,-79.44,-7.55,17.62,-3.06
8030,-52.44,165.56,-24.81,-6.59,15.15,-1.80
8040,-60.13,169.69,21.50,-5.91,13.03,-0.16
8050,-60.13,169.69,21.50,-5.91,13.03,-0.16
8060,-70.00,172.00,55.31,-4.63,9.09,3.57
8070,-62.31,169.87,104.31,-3.33,4.95,6.48
8080,-53.44,165.50,116.62,-2.88,3.51,8.05
8090,-52.38,152.12,122.44,-1.99,1.46,9.39
8100,-52.38,152.12,122.44,-1.99,1.46,9.39
8110,-63.81,128.62,126.37,-1.83,0.33,9.41
8120,-94.56,89.81,134.06,-1.41,-1.33,11.47
8130,-94.69,79.62,139.00,-1.12,-2.66,13.53
8140,-82.44,66.69,142.31,-0.71,-3.89,16.32
8150,-82.44,66.69,142.31,-0.71,-3.89,16.32
8160,-61.25,42.63,141.37,0.04,-5.31,18.24
8170,-23.31,-52.69,121.50,0.27,-7.61,18.60
8180,-2.31,-100.25,103.37,-0.17,-8.68,17.21
8190,19.19,-152.94,88.44,-0.67,-11.07,10.70
8200,19.19,-152.94,88.44,-0.67,-11.07,10.70
8210,25.00,-199.81,70.44,-0.54,-12.19,7.32
8220,23.00,-248.56,24.06,0.00,-14.10,-1.26
8230,9.94,-247.25,-3.50,0.19,-15.11,-7.58
8240,-0.25,-226.31,-34.56,0.48,-15.01,-9.68
8250,-0.25,-226.31,-34.56,0.48,-15.01,-9.68
8260,-2.56,-198.00,-70.81,0.25,-13.88,-11.20
8270,22.75,-131.94,-140.69,-1.84,-7.15,-15.44
8280,22.75,-131.94,-140.69,-2.07,-4.48,-16.88
8290,37.75,-102.75,-162.75,-2.25,0.01,-18.76
8300,47.63,-70.19,-173.25,-2.25,0.01,-18.76
8310,50.75,-35.31,-173.94,-2.40,2.11,-18.53
8320,42.25,4.56,-169.00,-2.59,4.89,-15.75
8330,31.19,41.88,-156.87,-3.17,6.70,-12.11
8340,18.00,72.31,-143.37,-3.40,7.32,-10.48
8350,5.19,95.06,-130.81,-3.40,7.32,-10.48
8360,-4.25,108.94,-118.06,-3.74,7.80,-9.52
8370,-6.75,119.75,-105.06,-4.16,9.17,-6.99
8380,-6.25,130.19,-90.44,-4.47,9.61,-6.36
8390,-3.94,140.44,-74.12,-4.57,9.47,-5.26
8400,-10.75,151.69,-53.63,-4.57,9.47,-5.26
8410,-31.31,158.12,-28.37,-4.42,8.19,-3.17
8420,-55.44,160.37,-3.69,-3.98,5.94,-0.47
8430,-72.25,164.19,19.69,-3.46,4.13,2.63
8440,-77.75,167.37,39.94,-3.08,3.50,4.36
8450,-81.62,168.31,53.19,-3.08,3.50,4.36
8460,-85.87,151.50,71.44,-3.19,3.03,5.40
8470,-85.87,151.50,71.44,-3.07,2.33,8.71
8480,-89.00,137.56,79.87,-2.80,1.48,9.68
8490,-96.50,115.44,89.25,-2.29,0.26,10.64
8500,-98.75,92.06,98.06,-2.29,0.26,10.64
8510,-77.81,42.63,102.31,-1.59,-0.95,11.70
8520,-77.81,42.63,102.31,-1.31,-1.57,11.39
8530,-60.63,17.31,100.12,-1.01,-1.49,11.89
8540,-47.31,-4.94,96.81,-0.96,-1.51,12.28
8550,-37.81,-23.19,93.12,-0.96,-1.51,12.28
8560,-20.81,-61.25,88.44,-0.88,-1.69,12.10
8570,-20.81,-61.25,88.44,-1.11,-2.06,11.25
8580,-18.81,-81.44,85.56,-1.50,-2.34,10.92
8590,-11.38,-98.31,83.12,-1.54,-2.77,10.81
8600,-3.56,-115.31,80.50,-1.54,-2.77,10.81
8610,5.25,-155.25,73.31,-1.33,-4.30,9.26
8620,5.25,-155.25,73.31,-1.34,-4.55,7.71
8630,7.87,-173.12,64.94,-1.25,-4.78,7.09
8640,14.94,-185.94,57.13,-1.10,-6.63,5.24
8650,27.50,-196.50,53.31,-1.10,-6.63,5.24
8660,43.19,-216.19,42.56,-0.76,-7.84,4.21
8670,43.19,-216.19,42.56,1.11,-12.92,-2.26
8680,42.38,-228.69,31.06,1.67,-14.20,-4.52
8690,41.31,-228.31,-14.94,1.84,-15.21,-7.05
8700,47.13,-213.94,-44.50,1.84,-15.21,-7.05
8710,48.25,-194.44,-75.12,2.32,-17.77,-12.71
8720,48.25,-194.44,-75.12,1.13,-15.76,-18.01
8730,34.31,-119.06,-154.62,-0.12,-13.28,-17.34
8740,34.31,-119.06,-154.62,-2.13,-7.67,-16.36
8750,28.50,-33.13,-208.69,-2.13,-7.67,-16.36
8760,22.94,-7.50,-222.69,-2.77,-4.73,-16.40
8770,22.94,-7.50,-222.69,-5.69,7.03,-15.37
8780,11.19,16.69,-229.81,-6.56,10.54,-13.87
8790,-10.13,80.50,-208.62,-7.23,12.80,-12.43
8800,-10.13,80.50,-208.62,-7.23,12.80,-12.43
8810,-27.44,132.37,-139.56,-7.61,13.83,-11.22
8820,-36.56,159.56,-108.25,-7.85,16.09,-5.48
8830,-42.13,176.19,-69.25,-7.47,15.00,-4.33
8840,-51.88,182.25,-24.44,-5.97,12.16,-1.79
8850,-65.12,189.56,13.13,-5.97,12.16,-1.79
8860,-67.44,199.81,43.19,-5.48,10.80,0.64
8870,-58.56,202.19,67.56,-5.29,9.52,2.23
8880,-47.06,201.81,88.37,-5.11,8.12,3.46
8890,-42.06,196.06,105.06,-4.23,5.20,6.11
8900,-48.13,180.12,116.50,-3.77,3.33,7.33
8910,-59.31,159.50,121.19,-3.26,1.82,8.73
8920,-61.13,132.12,121.94,-2.10,0.42,12.49
8930,-54.38,98.94,120.12,-1.95,-0.07,13.23
8940,-55.63,61.00,116.56,-1.72,-0.65,13.53
8950,-61.69,22.94,113.37,-1.63,-1.24,16.01
8960,-51.19,-16.94,112.19,-1.38,-1.95,17.36
8970,-34.44,-64.50,107.44,-1.25,-2.54,17.73
8980,-26.19,-117.87,101.69,-1.37,-2.71,17.44
8990,-16.94,-165.25,96.94,-1.57,-4.10,13.75
9000,-8.00,-195.94,88.81,-1.51,-4.75,12.10
9010,3.19,-218.44,80.06,-1.78,-5.38,11.33
9020,18.00,-242.19,72.37,-2.05,-7.71,9.05
9030,31.81,-265.69,62.75,-2.08,-9.50,6.33
9040,33.81,-282.87,49.69,-1.70,-11.59,2.00
9050,23.56,-278.69,28.81,-1.01,-13.21,-2.75
9060,21.19,-249.50,2.44,-0.34,-15.86,-8.12
9070,32.75,-213.87,-26.94,0.71,-17.28,-10.27
9080,44.88,-176.56,-65.19,1.37,-17.84,-12.08
9090,52.25,-143.81,-105.75,1.67,-16.15,-15.21
9100,52.75,-112.00,-142.81,1.22,-13.88,-16.83
9110,42.50,-77.25,-170.87,0.85,-11.07,-17.43
9120,28.94,-42.38,-189.19,0.44,-7.97,-17.55
9130,26.25,-9.06,-197.44,-1.07,-3.06,-16.24
9140,23.25,21.87,-199.37,-1.57,-1.31,-15.72
9150,17.50,51.50,-201.81,-2.20,0.38,-14.57
9160,18.00,78.56,-201.62,-4.41,4.70,-11.13
9170,22.62,95.75,-191.37,-4.96,6.38,-9.84
9180,20.06,104.81,-172.75,-5.63,8.05,-9.39
9190,0.88,113.06,-146.81,-6.03,9.77,-8.70
9200,-32.25,114.00,-113.81,-5.97,11.36,-7.20
9210,-61.63,117.37,-78.62,-5.59,10.68,-6.89
9220,-75.87,132.69,-50.00,-5.29,9.57,-5.82
9230,-75.50,148.25,-28.06,-4.57,7.49,-2.17
9240,-71.12,155.56,-10.88,-4.43,6.86,-0.79
9250,-69.69,155.50,3.44,-3.93,5.94,0.64
9260,-69.75,153.31,14.44,-2.94,5.00,2.65
9270,-69.19,148.81,24.06,-2.83,4.51,3.67
9280,-67.69,142.25,33.31,-2.48,3.99,4.37
9290,-69.69,134.75,42.06,-2.36,3.50,4.98
9300,-74.81,123.94,51.31,-1.67,2.41,6.66
9310,-78.06,110.19,58.19,-1.53,1.62,7.27
9320,-73.31,96.87,63.00,-1.30,0.95,7.93
9330,-64.12,81.81,65.50,-0.63,-0.08,8.33
9340,-51.69,68.06,65.87,-0.48,-0.43,8.41
9350,-39.88,55.13,65.87,-0.34,-0.71,8.34
9360,-30.19,43.75,64.62,-0.20,-0.85,8.44
9370,-21.19,32.56,63.00,0.19,-1.07,8.35
9380,-14.56,21.94,59.56,0.06,-0.77,8.14
9390,-5.87,14.06,57.38,-0.06,-0.21,8.19
9400,3.12,6.12,59.06,-0.95,1.07,8.17
9410,7.12,-5.19,66.37,-1.31,1.32,8.76
9420,10.06,-23.25,77.06,-1.34,1.24,9.18
9430,7.94,-46.31,86.31,-1.33,0.72,8.82
9440,-0.88,-69.12,91.37,-1.38,-0.28,7.83
9450,-0.62,-87.19,94.31,-1.56,-0.66,7.37
9460,10.19,-100.37,96.44,-1.42,-1.39,6.80
9470,17.87,-111.62,95.31,-0.95,-2.51,5.65
9480,25.75,-120.37,93.12,-0.58,-3.03,5.34
9490,36.56,-127.06,90.81,-0.19,-3.82,5.03
9500,42.06,-136.75,87.12,0.48,-7.33,4.86
9510,37.63,-155.44,77.69,1.32,-9.85,4.32
9520,24.25,-181.31,59.94,2.30,-12.23,2.75
9530,4.50,-203.69,32.88,2.85,-14.52,0.41
9540,-10.31,-214.81,-2.94,3.77,-19.24,-4.28
9550,-14.31,-213.94,-49.94,4.40,-21.25,-7.31
9560,-15.63,-199.37,-109.00,4.18,-22.08,-11.17
9570,-17.69,-164.44,-172.12,1.70,-19.69,-17.20
9580,-16.19,-113.75,-232.44,-0.29,-16.09,-18.38
9590,-3.75,-57.38,-279.87,-2.56,-10.18,-18.13
9600,15.63,-9.88,-297.56,-5.36,-3.28,-17.03
9610,24.69,29.06,-287.81,-7.83,8.25,-15.68
9620,13.50,59.81,-256.00,-8.82,12.91,-14.62
9630,-23.31,76.44,-207.69,-9.24,16.04,-13.71
9640,-59.31,97.44,-154.75,-9.29,19.67,-9.97
9650,-79.87,117.06,-98.12,-9.15,19.67,-7.96
9660,-91.00,129.44,-42.44,-8.25,18.02,-7.26
9670,-103.19,148.75,0.31,-7.56,16.44,-6.50
9680,-104.81,168.19,36.00,-6.90,14.71,-1.31
9690,-96.94,174.69,72.44,-6.36,13.02,0.00
9700,-94.87,177.56,104.06,-5.79,10.96,0.48
9710,-99.25,183.81,129.62,-5.13,7.86,2.51
9720,-99.44,188.75,153.62,-4.97,5.89,4.09
9730,-89.25,188.31,173.06,-4.55,3.69,5.84
9740,-70.31,182.06,183.69,-2.92,-0.29,9.45
9750,-46.94,168.69,185.50,-2.39,-1.71,10.63
9760,-35.31,147.06,179.25,-1.66,-3.00,12.23
9770,-30.87,113.56,166.37,-1.03,-4.12,14.05
9780,-23.12,72.69,149.25,-0.31,-5.58,16.17
9790,-13.63,26.25,131.94,0.08,-6.23,16.95
9800,1.50,-25.94,113.12,0.26,-6.71,17.34
9810,18.62,-80.37,94.37,-0.36,-7.54,15.17
9820,26.37,-135.87,79.19,-0.21,-8.45,11.09
9830,20.81,-170.87,59.81,-0.19,-8.62,6.66
9840,17.31,-175.06,39.38,-0.56,-8.23,4.20
9850,19.25,-169.75,27.25,-1.00,-7.65,0.27
