timestamp,gyrox,gyroy,gyroz,accx,accy,accz
10,24.94,-159.00,122.69,0.20,-8.75,2.58
20,19.94,-169.81,109.31,1.47,-11.71,0.38
30,21.87,-177.31,89.50,2.95,-14.02,-1.01
40,29.94,-179.00,65.81,3.75,-16.69,-3.50
50,38.75,-181.31,40.06,4.18,-17.82,-6.16
60,42.69,-186.06,10.44,4.18,-17.82,-6.16
70,38.13,-189.12,-25.31,4.11,-18.24,-9.34
80,25.87,-180.31,-67.37,1.79,-15.85,-17.52
90,10.56,-156.44,-109.31,0.80,-14.03,-18.62
100,-8.25,-124.75,-147.12,0.00,-12.32,-17.85
110,-21.19,-75.37,-178.37,0.00,-12.32,-17.85
120,-24.94,-27.75,-203.25,-1.80,-7.12,-15.92
130,-20.44,12.81,-223.50,-3.77,-1.30,-14.74
140,-16.00,47.50,-236.19,-5.66,3.06,-13.70
150,-20.25,77.37,-245.81,-9.36,12.39,-10.46
160,-24.19,105.62,-246.31,-9.36,12.39,-10.46
170,-19.37,124.69,-221.12,-10.02,14.51,-10.58
180,-23.62,134.31,-181.75,-10.27,17.86,-8.34
190,-45.19,150.69,-139.37,-10.07,17.39,-6.16
200,-71.81,170.31,-92.19,-9.86,16.26,-3.66
210,-89.25,187.87,-44.75,-9.86,16.26,-3.66
220,-100.12,199.94,1.25,-7.75,12.47,1.36
230,-106.19,205.31,40.00,-6.52,8.67,5.10
240,-100.00,207.37,68.50,-5.89,7.04,7.58
250,-96.50,203.31,88.75,-4.39,4.04,11.65
260,-93.94,190.00,104.25,-4.39,4.04,11.65
270,-83.69,166.31,113.87,-3.71,2.70,12.68
280,-76.44,136.87,118.62,-2.36,0.67,14.07
290,-71.81,102.62,118.81,-2.18,0.50,15.10
300,-64.62,70.25,116.81,-2.21,0.40,17.00
310,-54.88,41.69,115.81,-2.21,0.40,17.00
320,-42.13,7.19,116.12,-2.09,0.16,18.39
330,-26.06,-37.06,118.44,-1.53,-2.55,15.23
340,-14.56,-81.94,117.44,-1.49,-2.97,14.61
350,-10.25,-117.44,112.06,-1.52,-4.82,13.74
360,-2.81,-143.37,107.31,-1.52,-4.82,13.74
370,7.81,-170.50,103.69,-1.15,-5.91,12.38
380,19.06,-197.81,98.25,-0.41,-8.65,9.18
390,31.00,-219.12,90.19,0.68,-13.48,4.18
400,40.38,-237.19,80.06,1.03,-15.98,1.25
410,43.06,-252.06,64.50,1.03,-15.98,1.25
420,41.25,-258.69,36.88,1.33,-17.70,-1.17
430,40.50,-257.94,2.06,0.83,-21.76,-13.72
440,41.38,-253.62,-36.81,0.83,-21.76,-13.72
450,30.00,-234.75,-82.87,0.33,-21.30,-17.73
460,9.75,-188.31,-134.69,-1.96,-16.22,-20.10
470,-3.44,-134.75,-181.62,-3.09,-12.37,-20.14
480,4.00,-82.31,-215.87,-4.00,-8.80,-20.31
490,30.06,-32.50,-235.75,-4.41,-5.37,-20.75
500,57.63,17.37,-248.50,-6.22,3.08,-19.87
510,73.25,66.44,-254.75,-8.00,8.42,-18.29
520,75.06,107.06,-242.19,-9.59,12.83,-16.29
530,57.50,130.25,-204.12,-9.51,15.80,-14.71
540,20.19,140.50,-154.06,-9.03,15.66,-13.44
550,-25.87,155.69,-106.44,-8.40,14.62,-11.10
560,-60.88,174.44,-64.69,-7.90,13.02,-8.56
570,-73.44,192.75,-31.56,-6.42,9.98,-3.10
580,-71.87,206.25,-4.94,-5.57,8.34,-0.39
590,-67.87,209.31,15.19,-4.61,6.54,1.68
600,-62.38,202.87,28.12,-2.75,3.69,5.09
610,-58.75,191.56,35.44,-2.06,2.16,6.57
620,-61.31,171.87,38.75,-1.49,0.61,7.72
630,-62.69,148.44,38.25,-0.96,-0.72,8.21
640,-61.88,124.50,34.31,-0.24,-2.41,7.57
650,-63.94,102.50,28.06,-0.10,-2.79,7.11
660,-66.75,86.19,20.31,-0.13,-2.99,6.98
670,-67.75,74.69,11.63,-0.74,-1.53,7.63
680,-65.37,62.69,4.19,-1.23,-0.47,7.45
690,-60.19,50.13,1.12,-1.81,0.93,7.03
700,-56.06,38.00,3.25,-2.76,3.62,6.36
710,-54.88,28.94,10.38,-3.16,4.82,6.27
720,-55.44,19.94,22.75,-3.39,5.41,6.41
730,-51.69,12.88,39.00,-3.44,6.00,6.52
740,-43.00,7.81,55.06,-3.69,6.87,7.81
750,-34.44,1.19,73.56,-3.56,6.58,8.52
760,-24.00,-9.25,93.37,-3.48,6.18,8.91
770,-14.31,-21.00,111.00,-3.18,4.38,10.45
780,-8.69,-35.94,127.12,-2.71,2.81,11.01
790,-7.87,-56.13,138.94,-2.39,1.66,11.55
800,-12.19,-78.12,144.19,-2.27,0.60,12.97
810,-9.31,-104.56,147.19,-1.70,-3.06,12.61
820,5.25,-137.19,147.44,-1.18,-4.77,11.09
830,16.31,-161.00,140.75,-0.89,-5.96,10.41
840,27.00,-177.75,131.19,-0.09,-8.96,9.12
850,37.13,-194.31,121.56,0.51,-10.92,8.58
860,40.63,-214.56,110.06,1.36,-13.68,6.92
870,35.25,-241.87,92.25,2.14,-16.63,4.03
880,17.62,-264.19,61.63,3.03,-21.94,-4.29
890,-0.56,-277.19,18.69,2.95,-23.26,-10.06
900,-7.50,-261.12,-38.94,2.17,-23.53,-13.79
910,4.44,-214.50,-101.87,-0.79,-19.91,-18.60
920,18.31,-167.62,-160.12,-2.75,-15.66,-20.25
930,23.87,-127.50,-202.19,-4.14,-11.45,-22.02
940,22.00,-93.00,-221.00,-4.57,-7.87,-24.67
950,10.56,-51.88,-226.00,-5.03,-1.47,-25.92
960,-4.56,5.25,-228.56,-5.90,2.69,-23.29
970,-8.94,64.75,-227.50,-7.31,7.16,-19.68
980,-3.06,111.56,-213.87,-9.00,13.38,-14.60
990,-6.12,136.19,-185.37,-9.25,15.13,-12.94
1000,-20.62,153.12,-148.81,-9.32,16.17,-11.11
1010,-41.13,167.44,-108.56,-8.50,15.97,-7.24
1020,-66.00,178.00,-67.31,-7.95,14.88,-4.88
1030,-85.00,189.00,-29.06,-7.46,13.77,-1.95
1040,-92.19,197.81,4.37,-7.07,12.48,0.80
1050,-88.62,199.12,34.06,-5.66,9.39,4.86
1060,-83.00,195.31,59.88,-4.94,7.61,6.79
1070,-79.31,186.12,78.19,-4.59,6.38,8.68
1080,-72.81,170.56,90.00,-3.46,4.07,11.40
1090,-67.94,146.25,100.19,-2.92,3.07,12.07
1100,-64.37,119.69,107.00,-2.80,2.58,12.32
1110,-61.50,93.81,111.50,-2.59,2.43,12.61
1120,-60.19,69.75,117.44,-2.30,1.62,14.77
1130,-53.31,44.88,124.12,-2.12,0.76,15.39
1140,-46.19,14.56,128.37,-1.98,-0.08,15.71
1150,-38.50,-17.56,129.75,-1.68,-1.61,14.94
1160,-27.37,-48.38,128.37,-1.66,-2.33,14.05
1170,-17.37,-74.87,124.75,-1.79,-2.70,13.70
1180,-7.94,-98.12,120.44,-1.81,-3.13,13.64
1190,3.44,-122.69,117.87,-1.71,-4.71,12.00
1200,12.38,-147.00,115.19,-1.46,-5.67,11.31
1210,19.56,-167.50,112.37,-1.09,-7.31,10.58
1220,27.00,-189.37,106.56,-0.28,-11.38,8.22
1230,32.38,-213.31,94.06,0.28,-13.43,6.60
1240,40.94,-236.25,74.87,1.03,-15.62,2.92
1250,52.56,-253.69,48.88,1.44,-20.41,-4.75
1260,52.75,-251.25,15.13,2.17,-22.54,-9.06
1270,40.31,-241.62,-27.12,2.42,-23.27,-14.68
1280,18.69,-213.00,-81.19,1.60,-22.39,-17.09
1290,5.31,-156.12,-136.44,-0.69,-18.38,-17.02
1300,10.75,-114.00,-181.56,-2.02,-14.73,-18.97
1310,16.19,-80.31,-219.00,-3.11,-10.78,-20.29
1320,18.69,-40.63,-244.31,-5.55,-0.89,-21.31
1330,22.56,3.87,-260.19,-7.35,4.86,-19.24
1340,29.19,51.75,-259.12,-8.64,9.00,-16.85
1350,38.69,84.56,-236.69,-9.30,11.42,-15.91
1360,39.00,102.69,-204.19,-10.18,15.28,-15.90
1370,24.94,126.56,-166.56,-10.04,15.93,-14.65
1380,2.00,151.69,-124.37,-9.75,16.07,-12.80
1390,-23.69,174.19,-82.00,-8.30,13.41,-7.11
1400,-47.88,189.50,-42.56,-7.79,11.80,-5.22
1410,-64.44,194.94,-10.69,-7.48,10.54,-3.27
1420,-73.37,200.87,15.38,-6.78,8.93,-1.29
1430,-74.69,203.50,36.38,-5.41,6.15,2.12
1440,-72.00,205.06,51.94,-4.94,4.99,4.00
1450,-71.44,201.50,61.88,-4.62,4.39,5.76
1460,-70.12,191.44,69.81,-3.71,3.73,8.47
1470,-70.19,173.87,77.87,-3.36,3.17,9.32
1480,-69.37,152.69,86.94,-2.92,2.14,9.55
1490,-66.50,130.25,94.50,-1.97,0.45,10.45
1500,-62.56,111.31,98.00,-1.55,-0.17,11.28
1510,-57.13,91.00,98.12,-1.48,-0.35,11.86
1520,-47.81,67.44,95.25,-1.57,-0.13,11.84
1530,-36.38,42.44,94.50,-1.07,-0.49,10.18
1540,-29.50,20.31,95.19,-1.05,0.00,9.42
1550,-29.69,4.56,94.50,-1.34,0.54,9.45
1560,-30.06,-6.50,97.56,-1.34,0.22,10.24
1570,-26.81,-18.56,103.87,-1.20,-0.39,10.36
1580,-22.81,-32.81,108.81,-1.00,-1.20,10.49
1590,-19.12,-49.63,109.69,-1.04,-1.61,10.55
1600,-14.44,-68.56,107.94,-0.83,-1.98,9.70
1610,-7.25,-85.81,106.44,-0.88,-1.72,9.41
1620,3.00,-98.62,103.25,-1.23,-1.09,9.86
1630,14.69,-111.31,103.62,-1.44,-1.95,9.85
1640,24.31,-129.19,107.25,-1.66,-2.65,9.65
1650,23.44,-149.87,108.31,-1.49,-3.34,9.33
1660,16.19,-176.69,107.75,-0.97,-4.76,8.11
1670,13.50,-201.56,103.50,-0.17,-7.47,4.15
1680,16.50,-213.50,90.69,-0.02,-8.50,4.06
1690,24.94,-217.00,76.69,0.80,-11.13,3.15
1700,33.88,-230.56,61.38,1.51,-16.30,-4.09
1710,26.87,-237.19,33.69,1.76,-18.81,-6.14
1720,9.81,-230.44,-2.00,2.15,-21.27,-9.85
1730,-9.31,-224.37,-47.19,0.20,-21.24,-17.86
1740,-20.19,-194.44,-100.69,-0.80,-20.33,-21.25
1750,-22.37,-150.06,-150.75,-1.72,-17.60,-23.43
1760,-16.69,-91.62,-198.12,-3.16,-13.15,-23.39
1770,1.19,-27.81,-232.75,-5.24,-4.02,-21.18
1780,14.31,20.06,-247.50,-5.90,0.28,-20.45
1790,15.94,58.31,-250.56,-6.77,4.44,-19.32
1800,9.00,92.87,-243.69,-9.32,12.31,-15.36
1810,-1.37,123.62,-223.12,-10.01,14.37,-13.35
1820,-14.88,145.06,-187.31,-9.79,15.59,-12.40
1830,-35.00,160.25,-145.94,-9.94,16.26,-11.03
1840,-60.69,177.94,-104.37,-9.00,16.01,-6.19
1850,-81.75,193.37,-63.44,-8.51,14.98,-3.91
1860,-91.75,205.69,-25.12,-7.83,13.64,-1.37
1870,-97.31,214.12,8.00,-6.10,10.68,4.14
1880,-95.94,214.37,35.44,-5.82,9.51,6.60
1890,-90.37,207.31,57.56,-5.21,7.88,9.04
1900,-83.25,190.75,77.31,-3.93,5.72,10.79
1910,-74.87,166.19,88.56,-3.11,4.06,12.59
1920,-69.06,140.94,92.75,-3.03,3.45,13.55
1930,-61.25,112.94,100.25,-2.53,2.46,13.60
1940,-55.44,82.94,106.44,-1.94,1.97,15.67
1950,-53.44,56.81,110.19,-1.73,1.24,17.64
1960,-49.75,23.44,115.69,-1.46,0.07,18.29
1970,-38.94,-17.12,119.06,-0.92,-2.37,17.94
1980,-28.62,-57.81,116.31,-1.01,-2.92,17.21
1990,-22.00,-96.87,110.19,-1.14,-3.25,16.71
2000,-13.13,-131.75,104.50,-1.21,-4.04,16.14
2010,1.94,-163.81,100.56,-1.19,-6.45,12.85
2020,17.56,-190.62,95.31,-1.06,-7.87,12.14
2030,26.44,-213.19,87.06,-0.73,-9.94,10.94
2040,38.50,-240.37,76.62,-0.49,-13.71,3.26
2050,41.44,-262.69,58.81,-0.47,-15.93,0.54
2060,32.50,-270.69,36.81,0.34,-19.13,-3.97
2070,26.69,-273.25,7.87,0.72,-21.38,-9.24
2080,21.94,-249.81,-38.06,0.11,-22.51,-15.40
2090,25.81,-209.37,-88.69,-0.45,-21.31,-18.96
2100,29.62,-166.37,-138.06,-1.04,-19.15,-20.40
2110,31.19,-111.69,-182.44,-2.07,-12.83,-20.38
2120,33.00,-62.25,-217.19,-2.93,-8.55,-19.60
2130,34.88,-16.50,-240.31,-3.56,-4.89,-18.45
2140,31.25,20.69,-251.19,-4.27,-1.61,-17.50
2150,23.06,51.88,-258.19,-8.09,7.72,-14.83
2160,21.25,82.00,-254.75,-9.26,11.38,-14.05
2170,22.81,102.25,-228.31,-9.71,13.69,-14.30
2180,10.25,119.00,-189.94,-9.60,16.19,-12.90
2190,-18.81,137.62,-146.06,-9.04,15.67,-11.72
2200,-50.19,156.06,-101.00,-8.61,14.61,-9.57
2210,-74.12,178.75,-61.88,-7.47,12.11,-4.16
2220,-80.25,196.12,-26.44,-6.91,10.23,-2.54
2230,-76.50,206.25,3.87,-6.49,8.69,-1.00
2240,-78.25,211.56,25.37,-6.42,7.78,0.88
2250,-84.69,209.12,42.44,-4.51,5.10,4.53
2260,-86.62,200.06,59.13,-3.92,3.79,5.72
2270,-86.06,190.19,69.81,-3.66,2.95,7.31
2280,-87.56,176.12,77.00,-2.16,0.94,9.58
2290,-86.94,156.56,82.75,-1.82,0.21,10.05
2300,-80.81,135.31,82.81,-1.97,0.21,10.67
2310,-71.19,113.94,79.75,-1.83,0.16,11.14
2320,-71.19,113.94,79.75,-1.71,0.48,11.13
2330,-45.88,67.31,76.81,-1.83,1.01,11.08
2340,-38.25,44.69,77.75,-1.78,1.47,10.68
2350,-34.06,20.25,81.69,-1.52,1.75,9.15
2360,-31.50,3.62,86.81,-1.59,2.03,9.73
2370,-29.56,-4.94,92.25,-1.67,1.97,10.59
2380,-27.25,-18.44,100.19,-1.79,1.43,10.90
2390,-25.56,-36.81,107.69,-1.54,0.40,10.90
2400,-23.50,-57.31,111.56,-1.75,0.13,10.45
2410,-18.25,-77.19,112.19,-1.99,0.20,10.21
2420,-11.00,-93.75,113.37,-2.26,-0.72,9.71
2430,2.69,-110.25,116.94,-2.11,-1.43,8.66
2440,17.31,-126.19,119.31,-1.95,-1.93,7.80
2450,22.87,-140.00,119.12,-1.47,-3.76,5.79
2460,25.25,-152.62,118.06,-0.71,-5.31,3.44
2470,25.25,-152.62,118.06,-0.82,-5.58,2.80
2480,12.13,-161.06,99.56,-1.05,-5.88,3.51
2490,12.63,-161.12,89.94,-0.46,-9.09,1.25
2500,12.81,-173.94,79.37,-0.21,-10.02,-0.48
2510,-0.31,-189.31,61.19,0.30,-11.25,-1.78
2520,-0.31,-189.31,61.19,0.43,-14.40,-4.48
2530,-7.87,-199.44,40.56,0.42,-16.89,-6.81
2540,11.94,-215.06,-12.44,1.54,-19.57,-12.57
2550,3.56,-226.94,-46.56,1.20,-20.07,-17.86
2560,-18.25,-199.62,-93.25,0.97,-19.46,-19.76
2570,-18.25,-199.62,-93.25,0.90,-18.27,-21.49
2580,-16.75,-150.19,-135.31,0.01,-15.22,-20.41
2590,12.63,-33.13,-224.56,-2.57,-6.52,-14.19
2600,33.00,16.37,-255.69,-4.00,-2.30,-12.84
2610,41.63,41.88,-273.00,-5.77,1.66,-11.32
2620,41.63,41.88,-273.00,-7.70,6.59,-10.21
2630,30.37,54.44,-279.00,-10.86,15.63,-11.42
2640,19.31,69.06,-237.56,-11.11,17.54,-12.79
2650,-8.88,80.19,-187.50,-11.30,19.08,-13.44
2660,-38.00,109.94,-134.31,-10.19,19.54,-8.94
2670,-38.00,109.94,-134.31,-9.34,17.79,-6.05
2680,-59.00,152.06,-76.37,-8.93,16.36,-2.88
2690,-97.12,199.56,21.75,-8.51,14.93,0.43
2700,-103.87,206.12,60.69,-6.17,11.19,6.12
2710,-101.37,200.44,92.81,-5.26,9.23,8.49
2720,-101.37,200.44,92.81,-4.73,7.79,10.41
2730,-96.00,188.50,115.69,-4.73,7.79,10.41
2740,-76.69,144.37,144.00,-2.86,3.83,13.55
2750,-62.13,115.44,150.31,-2.73,3.22,13.50
2760,-44.44,92.19,155.37,-2.60,1.46,15.98
2770,-44.44,92.19,155.37,-2.60,1.46,15.98
2780,-24.69,73.31,161.69,-2.17,-0.41,17.29
2790,-2.81,12.50,169.31,-0.98,-3.45,19.17
2800,0.06,-29.81,162.31,-0.57,-5.19,19.43
2810,5.62,-81.25,155.06,-0.10,-6.36,18.19
2820,5.62,-81.25,155.06,-0.10,-6.36,18.19
2830,16.37,-179.87,134.94,-0.11,-6.97,17.12
2840,34.69,-219.87,127.69,0.60,-13.39,8.24
2850,48.13,-258.25,121.00,1.53,-17.38,1.43
2860,24.62,-272.94,96.37,2.25,-19.68,-2.95
2870,24.62,-272.94,96.37,2.25,-19.68,-2.95
2880,-39.31,-230.00,4.25,1.57,-20.98,-5.58
2890,-14.44,-198.87,-42.38,1.02,-21.61,-7.20
2900,20.75,-171.81,-90.37,-0.16,-20.59,-11.70
2910,41.31,-162.00,-135.44,-1.09,-18.77,-15.58
2920,41.31,-162.00,-135.44,-1.09,-18.77,-15.58
2930,46.50,-113.00,-213.94,-2.39,-15.91,-18.60
2940,46.50,-113.00,-213.94,-4.30,-7.17,-21.89
2950,48.38,-66.37,-237.12,-5.17,-2.97,-19.79
2960,58.50,-9.69,-253.62,-6.36,0.99,-16.62
2970,82.37,54.88,-265.87,-6.36,0.99,-16.62
2980,89.81,112.69,-253.12,-8.30,7.34,-13.27
2990,89.81,112.69,-253.12,-9.40,11.95,-12.74
3000,24.75,115.94,-201.37,-9.26,14.36,-12.09
3010,-7.19,126.94,-166.94,-8.98,14.48,-11.26
3020,-33.88,144.62,-129.25,-8.98,14.48,-11.26
3030,-59.50,165.25,-91.81,-8.45,13.67,-9.85
3040,-59.50,165.25,-91.81,-7.05,10.96,-2.32
3050,-78.56,187.00,-59.63,-6.26,9.32,-0.08
3060,-86.00,204.44,-30.87,-5.22,7.38,1.68
3070,-81.19,214.81,17.31,-5.22,7.38,1.68
3080,-81.50,210.69,29.12,-4.24,5.63,5.68
3090,-81.50,210.69,29.12,-3.22,3.60,8.72
3100,-85.00,172.00,48.44,-2.57,2.86,9.24
3110,-82.25,146.12,50.25,-2.74,3.29,8.54
3120,-79.31,122.69,52.00,-2.74,3.29,8.54
3130,-74.12,103.87,58.38,-3.06,3.59,8.67
3140,-66.44,85.37,68.06,-2.56,2.93,8.21
3150,-62.44,67.37,77.19,-2.24,2.78,8.46
3160,-64.62,51.88,83.62,-2.52,3.02,8.86
3170,-66.87,36.81,90.56,-2.52,3.02,8.86
3180,-66.31,22.00,99.19,-2.51,2.85,9.54
3190,-64.56,4.62,105.31,-2.82,3.17,11.09
3200,-59.31,-13.13,115.37,-2.71,2.34,11.20
3210,-52.00,-34.13,127.75,-2.04,0.71,10.56
3220,-49.63,-54.13,132.69,-2.04,0.71,10.56
3230,-40.06,-68.81,133.25,-2.08,0.91,10.83
3240,-19.00,-79.81,136.31,-1.89,0.01,11.78
3250,3.69,-89.87,137.06,-2.37,-0.07,13.14
3260,28.25,-104.19,137.31,-2.28,-1.36,14.41
3270,51.56,-131.69,141.94,-2.28,-1.36,14.41
3280,70.25,-172.00,141.37,-1.83,-3.53,15.18
3290,78.06,-219.81,133.75,-2.59,-8.92,5.43
3300,77.81,-256.12,130.00,-1.51,-12.66,-0.75
3310,77.75,-266.81,124.50,1.35,-19.43,-9.25
3320,61.44,-242.87,102.62,1.35,-19.43,-9.25
3330,34.63,-203.81,64.56,2.12,-21.41,-8.83
3340,16.19,-183.00,22.00,2.46,-24.51,-10.51
3350,-6.75,-181.94,-22.19,1.90,-23.34,-17.37
3360,-30.44,-170.37,-77.50,1.22,-20.50,-19.62
3370,-26.62,-130.62,-133.19,1.22,-20.50,-19.62
3380,-8.13,-77.75,-178.81,0.35,-16.67,-20.82
3390,2.87,-23.56,-209.25,-3.25,-0.87,-17.45
3400,1.19,20.44,-219.87,-4.38,3.42,-15.36
3410,-8.13,51.81,-211.37,-5.38,6.68,-13.65
3420,-27.50,70.25,-191.06,-5.38,6.68,-13.65
3430,-51.75,81.06,-163.50,-6.84,11.21,-10.98
3440,-69.12,94.12,-132.94,-7.33,13.81,-8.88
3450,-75.06,110.56,-100.62,-6.75,13.90,-6.59
3460,-74.31,128.62,-66.87,-6.48,13.21,-4.91
3470,-76.62,146.25,-35.31,-6.48,13.21,-4.91
3480,-78.25,159.87,-5.19,-6.26,12.34,-3.26
3490,-81.94,170.37,23.37,-4.84,8.16,2.81
3500,-84.37,172.06,50.25,-4.84,8.16,2.81
3510,-86.44,168.87,72.12,-3.97,6.15,4.19
3520,-90.81,162.37,85.50,-3.09,4.14,5.63
3530,-84.50,153.00,91.06,-1.55,1.32,9.72
3540,-63.13,136.12,90.50,-1.13,0.30,10.81
3550,-51.75,111.31,86.00,-1.10,-0.04,11.13
3560,-52.00,83.31,84.37,-0.78,-0.04,11.89
3570,-50.56,55.31,84.56,-0.60,-0.46,12.27
3580,-49.81,28.50,82.75,-0.57,-0.64,13.70
3590,-41.50,-6.62,81.81,-0.67,-0.52,15.22
3600,-29.00,-44.44,80.94,-0.55,-1.34,15.93
3610,-15.88,-83.00,78.81,-0.29,-2.00,15.87
3620,-8.44,-123.00,74.12,-0.28,-2.50,14.77
3630,-9.75,-155.75,70.50,-1.21,-2.55,12.84
3640,-7.25,-185.37,70.19,-1.10,-2.93,11.59
3650,-0.06,-208.94,70.12,-0.95,-4.11,10.26
3660,7.87,-225.50,65.87,-0.41,-5.92,8.59
3670,14.25,-235.44,56.06,0.35,-9.61,6.66
3680,20.87,-250.06,42.94,1.24,-12.71,5.09
3690,24.12,-264.75,19.50,2.33,-15.79,1.51
3700,23.37,-263.44,-16.69,2.16,-20.71,-5.53
3710,15.00,-255.31,-60.38,2.37,-22.64,-10.53
3720,2.75,-225.75,-114.19,1.83,-22.86,-15.91
3730,5.25,-163.37,-169.25,-0.23,-21.67,-21.52
3740,13.31,-94.31,-224.25,-1.71,-18.76,-21.91
3750,29.06,-32.25,-271.37,-3.97,-13.08,-20.60
3760,52.50,10.88,-293.31,-5.78,-7.03,-19.21
3770,57.94,39.81,-294.25,-7.74,2.79,-19.00
3780,35.81,62.75,-281.94,-9.38,7.29,-17.90
3790,7.06,79.31,-253.62,-10.82,11.06,-16.75
3800,-17.44,96.94,-211.37,-11.67,15.49,-16.73
3810,-42.50,124.81,-164.62,-11.60,16.75,-15.49
3820,-66.19,156.81,-113.56,-11.36,17.08,-13.04
3830,-88.75,182.94,-61.63,-10.51,15.77,-10.85
3840,-109.19,204.37,-22.00,-8.43,12.71,-4.30
3850,-120.94,214.25,11.31,-7.84,11.26,-0.96
3860,-123.06,213.06,40.31,-6.83,9.03,1.48
3870,-123.56,208.25,58.63,-4.55,5.66,5.65
3880,-120.75,199.62,70.87,-4.01,4.71,7.64
3890,-115.56,184.62,82.06,-3.11,3.50,9.20
3900,-107.94,166.31,88.25,-2.37,2.17,10.25
3910,-97.19,146.50,90.75,-1.65,1.57,12.32
3920,-80.81,122.87,94.94,-1.32,0.97,12.49
3930,-67.37,100.37,95.37,-1.18,0.40,12.18
3940,-59.50,76.19,95.56,-1.30,0.83,13.73
3950,-51.06,46.56,100.62,-1.11,0.47,13.79
3960,-44.56,17.62,103.94,-0.76,-0.16,13.56
3970,-38.88,-8.06,102.81,-0.39,-1.03,12.13
3980,-34.31,-28.37,96.56,-0.65,-0.53,11.71
3990,-25.56,-43.38,93.00,-1.39,0.45,11.72
4000,-10.81,-57.94,97.56,-1.50,0.95,11.59
4010,0.56,-74.44,104.31,-1.42,0.25,10.49
4020,3.19,-89.25,108.81,-1.32,-0.21,10.58
4030,4.25,-107.75,111.00,-1.48,-0.59,11.17
4040,11.56,-131.19,113.94,-1.60,-2.58,10.08
4050,18.31,-152.87,112.69,-1.55,-3.67,9.37
4060,24.56,-172.50,107.44,-1.54,-4.35,8.41
4070,31.12,-189.06,102.37,-1.29,-5.05,6.89
4080,35.19,-199.19,95.81,-0.70,-8.03,4.42
4090,38.69,-206.75,83.94,-0.31,-9.14,3.13
4100,38.31,-213.75,69.31,0.07,-10.69,2.14
4110,30.81,-226.06,50.06,1.17,-15.45,-2.70
4120,13.19,-233.87,20.19,1.87,-17.70,-7.15
4130,-6.37,-220.25,-21.37,1.97,-19.52,-10.64
4140,-12.38,-189.56,-68.56,1.96,-20.88,-13.09
4150,-10.81,-154.56,-116.87,-0.08,-20.07,-17.74
4160,-3.19,-114.75,-161.25,-0.96,-18.71,-19.09
4170,14.56,-71.12,-200.50,-1.46,-16.34,-20.47
4180,34.44,-19.25,-233.00,-3.24,-9.19,-22.53
4190,43.81,34.31,-253.94,-4.09,-5.03,-22.39
4200,43.50,86.62,-262.94,-5.88,0.28,-20.87
4210,42.63,128.81,-249.37,-7.90,7.57,-15.61
4220,29.69,148.62,-221.81,-8.36,9.95,-14.95
4230,-3.75,165.62,-190.12,-9.19,12.24,-13.41
4240,-38.75,180.81,-152.00,-9.36,13.26,-11.37
4250,-66.69,193.31,-115.19,-9.57,15.21,-8.12
4260,-88.81,205.87,-75.94,-9.42,15.42,-6.60
4270,-110.87,218.31,-37.56,-9.15,14.58,-5.20
4280,-137.69,231.56,-3.62,-8.54,13.50,-0.65
4290,-160.06,239.81,31.31,-8.32,13.25,3.37
4300,-164.87,228.94,68.12,-7.72,12.14,6.76
4310,-162.69,206.12,101.56,-6.52,9.95,8.62
4320,-162.81,178.56,124.12,-4.13,5.66,12.16
4330,-157.00,149.50,138.19,-3.53,3.91,13.79
4340,-137.25,118.75,146.44,-2.86,2.41,15.25
4350,-114.31,85.31,148.31,-1.29,-0.17,15.62
4360,-102.19,53.38,144.00,-0.84,-1.04,16.70
4370,-88.25,20.69,136.25,-0.84,-1.75,18.39
4380,-68.87,-22.06,128.44,-0.79,-2.37,20.40
4390,-42.38,-77.44,120.62,-0.69,-4.54,18.94
4400,-25.81,-127.75,107.94,-0.68,-5.47,16.42
4410,-20.06,-165.37,91.56,-0.93,-5.30,14.66
4420,-11.13,-196.31,81.69,-1.86,-5.57,12.17
4430,2.44,-219.62,76.31,-1.71,-6.94,11.34
4440,15.19,-243.06,66.87,-1.41,-8.16,9.56
4450,15.69,-264.44,53.63,-1.02,-10.62,3.49
4460,8.81,-273.56,35.69,-1.17,-11.01,1.58
4470,10.69,-275.62,19.62,-0.58,-12.04,-0.25
4480,25.00,-271.69,0.44,0.12,-13.87,-2.78
4490,42.25,-259.56,-28.25,0.37,-18.26,-6.43
4500,54.56,-250.12,-66.94,0.80,-19.40,-10.49
4510,53.63,-229.69,-112.44,0.73,-19.33,-16.26
4520,40.00,-180.75,-158.44,-0.76,-15.87,-21.95
4530,38.50,-120.37,-192.06,-1.22,-13.67,-23.48
4540,48.00,-52.69,-214.50,-1.60,-11.54,-23.39
4550,64.56,12.13,-230.75,-1.87,-9.43,-21.65
4560,80.81,62.44,-242.31,-3.32,-2.98,-16.73
4570,79.62,90.00,-242.44,-3.65,-0.02,-14.36
4580,56.44,98.75,-234.31,-4.34,2.44,-12.74
4590,21.87,99.06,-219.81,-6.08,6.94,-10.66
4600,-5.50,100.62,-199.00,-6.67,8.12,-10.16
4610,-13.06,112.50,-176.69,-7.05,9.21,-9.81
4620,-2.87,135.31,-154.44,-7.37,10.33,-9.34
4630,4.25,156.31,-129.44,-7.87,12.22,-7.00
4640,-5.06,166.56,-99.31,-7.66,12.16,-6.18
4650,-31.00,170.75,-67.31,-7.75,12.47,-5.22
4660,-61.94,169.81,-32.38,-6.69,10.64,-2.69
4670,-83.00,169.31,-2.75,-6.54,9.29,-1.42
4680,-83.00,172.44,22.62,-6.12,8.06,-0.32
4690,-72.37,177.94,43.25,-4.77,5.26,1.56
4700,-61.25,185.31,57.44,-4.49,4.40,3.27
4710,-51.81,184.75,68.75,-4.23,3.25,4.65
4720,-48.31,176.31,75.00,-3.47,2.13,5.97
4730,-54.06,159.50,73.37,-2.57,1.12,7.56
4740,-59.94,140.00,70.56,-2.61,1.32,8.10
4750,-59.50,118.12,70.56,-2.66,1.24,7.95
4760,-58.75,98.81,72.12,-2.83,2.09,8.70
4770,-54.56,79.06,78.69,-2.71,2.22,9.38
4780,-47.56,55.06,88.56,-2.21,1.44,9.27
4790,-44.94,31.81,94.00,-1.84,0.76,8.91
4800,-45.44,14.00,95.31,-1.37,0.05,7.61
4810,-44.63,3.31,93.37,-1.55,0.35,7.41
4820,-40.19,-2.44,93.12,-1.87,0.83,7.67
4830,-32.31,-10.31,97.00,-2.04,1.31,9.40
4840,-23.87,-25.69,105.00,-1.93,0.96,9.71
4850,-20.56,-45.56,111.37,-2.04,1.10,9.67
4860,-22.62,-67.56,118.94,-2.21,0.91,9.83
4870,-23.75,-91.37,125.19,-1.50,-1.21,8.64
4880,-21.81,-108.81,124.50,-1.14,-1.87,8.01
4890,-15.25,-121.12,119.87,-1.38,-2.15,8.06
4900,-6.12,-133.44,115.56,-1.26,-2.56,8.20
4910,6.75,-146.31,112.12,-1.19,-3.39,7.80
4920,14.38,-160.00,106.50,-1.04,-4.06,6.74
4930,11.88,-170.69,99.75,-1.21,-4.16,7.61
4940,17.37,-184.37,96.75,-0.90,-5.18,8.14
4950,28.50,-206.44,94.19,-0.54,-6.43,7.76
4960,40.69,-229.12,87.56,-0.39,-7.91,6.54
4970,46.69,-248.37,73.94,0.43,-10.97,1.18
4980,47.44,-252.94,53.88,1.00,-11.90,-2.24
4990,39.94,-240.00,29.81,1.63,-13.28,-5.20
5000,32.06,-214.50,-0.75,1.65,-14.21,-7.45
5010,34.25,-188.94,-31.50,1.68,-14.89,-8.24
5020,33.50,-171.12,-63.69,1.35,-15.85,-9.22
5030,22.25,-161.37,-99.25,0.75,-15.93,-11.47
5040,5.00,-143.87,-131.19,-1.29,-13.17,-17.12
5050,-16.25,-114.87,-155.62,-1.59,-11.18,-19.10
5060,-23.19,-70.06,-175.75,-2.24,-8.12,-19.81
5070,-10.56,-18.00,-185.25,-3.24,-2.73,-17.74
5080,2.06,26.00,-187.56,-3.46,-0.75,-16.82
5090,4.81,63.13,-189.44,-4.33,1.92,-15.66
5100,2.06,94.06,-182.75,-5.70,5.39,-13.67
5110,-3.50,112.12,-161.62,-6.94,9.92,-10.70
5120,-18.62,121.06,-133.44,-7.20,10.97,-10.46
5130,-33.88,138.12,-104.81,-7.36,12.21,-9.58
5140,-44.75,155.56,-72.50,-7.28,13.21,-6.26
5150,-51.94,170.44,-38.00,-7.04,13.29,-4.21
5160,-56.19,179.12,-3.31,-6.65,12.59,-2.11
5170,-60.50,179.31,26.87,-5.39,10.42,1.27
5180,-65.50,178.06,51.19,-4.97,9.32,3.95
5190,-70.31,166.94,73.75,-4.08,7.45,6.14
5200,-70.69,147.25,87.19,-3.13,5.78,7.32
5210,-71.50,128.81,93.44,-1.75,3.89,9.55
5220,-74.31,105.94,98.50,-1.22,3.17,10.63
5230,-74.31,105.94,98.50,-1.01,2.76,11.57
5240,-53.88,55.63,107.56,-0.15,1.70,12.84
5250,-42.13,29.50,111.31,0.16,1.11,13.53
5260,-30.56,2.37,112.69,0.39,0.72,14.42
5270,-17.81,-30.50,113.69,0.37,0.31,14.37
5280,-12.56,-60.81,114.12,0.02,-0.29,13.03
5290,-11.00,-86.94,114.87,-0.04,-1.19,13.17
5300,-3.50,-112.12,113.19,0.07,-2.13,12.84
5310,11.19,-134.56,109.12,0.39,-3.85,12.09
5320,29.62,-156.12,102.25,0.09,-4.96,11.46
5330,29.62,-156.12,102.25,-0.02,-5.47,10.04
5340,52.69,-196.37,81.94,-0.21,-5.59,7.55
5350,51.81,-208.50,74.12,-0.05,-7.88,3.18
5360,45.50,-215.06,61.88,0.14,-8.66,0.37
5370,46.63,-204.50,48.13,-0.12,-9.41,-2.04
5380,46.63,-204.50,48.13,-0.06,-12.40,-3.28
5390,52.94,-185.31,34.19,0.38,-13.45,-5.78
5400,44.94,-161.94,-6.44,0.43,-14.48,-8.06
5410,27.00,-142.94,-35.69,-0.02,-15.37,-10.66
5420,21.12,-118.12,-67.94,-0.37,-14.70,-10.81
5430,21.12,-118.12,-67.94,-0.42,-14.04,-11.87
5440,28.56,-94.06,-97.19,-0.56,-12.82,-14.08
5450,5.37,-45.94,-145.94,-1.60,-7.87,-14.14
5460,1.00,-16.50,-156.87,-1.65,-6.27,-14.41
5470,-1.06,15.81,-164.94,-1.85,-4.78,-13.92
5480,-1.06,15.81,-164.94,-3.52,0.90,-9.92
5490,-0.69,47.06,-173.69,-4.41,3.86,-8.60
5500,3.19,74.44,-161.44,-4.84,5.93,-8.35
5510,-13.19,78.31,-143.37,-5.28,7.72,-7.95
5520,-34.00,82.56,-119.44,-5.35,9.45,-7.42
5530,-34.00,82.56,-119.44,-5.25,9.49,-7.15
5540,-48.31,92.81,-95.06,-5.20,9.32,-6.04
5550,-53.69,125.12,-53.81,-4.81,8.86,-4.48
5560,-56.31,138.69,-36.69,-4.95,9.03,-3.24
5570,-56.69,150.37,-17.50,-4.70,8.60,-1.23
5580,-56.69,150.37,-17.50,-3.65,7.09,2.05
5590,-54.13,152.75,2.19,-3.09,6.13,2.80
5600,-58.00,138.00,34.25,-2.65,5.11,3.39
5610,-59.00,129.56,45.13,-2.33,4.16,3.96
5620,-59.06,121.19,53.06,-1.61,2.85,5.80
5630,-59.06,121.19,53.06,-1.31,2.05,5.69
5640,-54.75,110.31,58.75,-1.31,2.05,5.69
5650,-45.38,93.50,63.69,-0.86,1.25,6.66
5660,-38.31,85.00,65.62,-0.81,1.18,6.96
5670,-31.31,78.62,66.87,-0.86,1.30,8.03
5680,-31.31,78.62,66.87,-0.86,1.30,8.03
5690,-22.37,68.06,69.69,-1.02,1.52,8.90
5700,-10.00,32.44,79.31,-0.79,0.82,10.42
5710,-9.38,11.06,83.69,-0.95,0.86,10.63
5720,-7.25,-10.00,88.44,-1.08,0.08,9.56
5730,-7.25,-10.00,88.44,-1.08,0.08,9.56
5740,-0.19,-24.31,91.62,-0.99,-0.19,9.32
5750,15.63,-46.50,95.25,-0.56,-0.63,9.85
5760,19.75,-59.19,95.62,-0.61,-0.72,10.69
5770,25.19,-73.87,97.62,-0.67,-1.03,11.17
5780,25.19,-73.87,97.62,-0.67,-1.03,11.17
5790,35.44,-90.50,100.19,-0.50,-1.80,11.13
5800,51.38,-124.50,97.94,-0.35,-4.88,9.47
5810,61.13,-140.56,94.56,-0.04,-6.42,7.95
5820,61.13,-140.56,94.56,0.03,-7.91,6.81
5830,68.87,-151.81,87.81,0.03,-7.91,6.81
5840,71.19,-166.25,80.19,0.95,-12.25,3.66
5850,63.25,-183.00,66.94,2.71,-17.39,-3.41
5860,47.63,-189.62,40.50,3.44,-20.95,-9.89
5870,39.13,-179.06,3.62,2.55,-20.69,-11.81
5880,36.88,-155.44,-43.19,2.55,-20.69,-11.81
5890,36.56,-129.00,-88.56,1.71,-19.83,-12.80
5900,36.44,-108.94,-127.44,-0.54,-13.49,-17.15
5910,30.81,-84.75,-160.44,-0.89,-10.72,-18.08
5920,22.69,-58.69,-184.50,-1.36,-7.99,-18.28
5930,14.25,-26.37,-203.31,-1.36,-7.99,-18.28
5940,7.81,8.38,-218.75,-3.86,-0.28,-16.24
5950,7.37,39.19,-222.37,-6.53,6.65,-14.51
5960,4.19,64.06,-211.56,-8.33,12.36,-13.05
5970,-11.44,83.19,-190.00,-8.70,13.72,-12.21
5980,-32.81,100.50,-156.75,-8.70,13.72,-12.21
5990,-55.31,121.12,-118.56,-8.60,14.35,-10.18
6000,-70.94,138.31,-81.50,-7.41,13.35,-3.60
6010,-78.69,151.00,-47.56,-7.23,13.09,-1.09
6020,-77.56,162.25,-17.19,-6.27,11.88,0.37
6030,-71.12,164.31,13.69,-6.27,11.88,0.37
6040,-72.00,163.00,38.06,-4.59,9.66,3.41
6050,-72.06,160.50,58.38,-3.49,7.02,6.32
6060,-73.00,154.31,78.62,-2.30,4.67,8.96
6070,-73.69,144.31,93.50,-2.11,3.62,10.23
6080,-75.25,128.94,103.87,-2.11,3.62,10.23
6090,-75.62,108.31,113.12,-1.57,2.40,11.25
6100,-75.50,83.87,118.25,0.11,-0.27,14.59
6110,-73.87,56.13,118.44,0.54,-0.86,15.55
6120,-63.94,25.06,115.19,0.71,-1.42,16.39
6130,-45.50,-8.63,108.94,0.71,-1.42,16.39
6140,-24.37,-47.88,103.37,0.41,-2.39,14.51
6150,-11.31,-85.50,99.50,0.26,-3.69,10.55
6160,-4.87,-111.62,95.62,0.11,-4.55,9.81
6170,-4.19,-131.06,91.25,0.17,-6.66,7.48
6180,-5.31,-149.94,85.87,0.17,-6.66,7.48
6190,-2.44,-162.50,75.50,0.30,-7.47,6.74
6200,6.69,-173.94,63.38,1.11,-10.12,1.28
6210,18.12,-180.56,49.69,1.48,-11.00,-0.06
6220,25.62,-178.19,33.25,1.79,-11.97,-2.61
6230,21.44,-178.44,16.12,1.79,-11.97,-2.61
6240,9.88,-169.87,-4.94,1.63,-12.19,-4.19
6250,4.37,-158.44,-27.00,1.12,-13.41,-6.89
6260,10.38,-149.00,-52.69,0.76,-12.99,-8.46
6270,18.81,-133.94,-82.44,-0.12,-10.70,-12.84
6280,28.12,-115.06,-111.44,-0.12,-10.70,-12.84
6290,34.56,-88.87,-134.94,-0.43,-9.35,-14.28
6300,31.69,-57.31,-150.94,-0.68,-6.49,-14.71
6310,25.37,-26.69,-163.12,-2.10,-1.71,-12.60
6320,16.00,0.75,-172.00,-2.56,0.82,-12.43
6330,4.25,18.62,-174.75,-2.56,0.82,-12.43
6340,-7.19,35.56,-172.25,-3.40,3.73,-12.18
6350,-11.38,55.25,-161.12,-5.18,8.78,-10.42
6360,-10.38,70.31,-142.87,-5.60,10.12,-10.31
6370,-12.69,88.06,-123.94,-6.12,12.19,-8.08
6380,-19.50,107.94,-99.56,-6.12,12.19,-8.08
6390,-31.19,125.25,-67.62,-5.73,11.53,-6.26
6400,-45.81,133.19,-37.19,-5.68,10.80,-4.90
6410,-60.38,136.87,-10.50,-5.34,9.66,-3.32
6420,-65.87,138.37,11.38,-4.16,6.88,-0.80
6430,-63.38,140.81,27.12,-3.63,5.57,0.56
6440,-58.50,140.25,37.63,-3.13,4.32,1.61
6450,-54.88,138.50,43.94,-2.30,2.78,3.93
6460,-53.38,132.81,48.00,-2.01,2.25,4.77
6470,-51.94,121.31,52.31,-1.71,1.67,4.98
6480,-53.50,110.94,56.13,-1.67,1.43,5.12
6490,-54.50,100.87,60.69,-1.33,0.56,6.28
6500,-51.75,86.75,64.81,-1.24,0.08,6.52
6510,-47.38,73.56,67.25,-0.96,-0.35,6.84
6520,-42.00,59.75,67.87,-0.51,-0.94,5.88
6530,-40.31,51.63,66.00,-0.53,-0.63,6.33
6540,-37.44,43.50,66.06,-0.23,-0.95,6.86
6550,-32.50,31.62,65.81,0.00,-1.67,6.41
6560,-29.31,23.56,61.31,0.07,-1.82,6.96
6570,-22.06,14.31,56.56,0.07,-1.71,6.78
6580,-11.44,7.12,51.75,-0.11,-1.13,6.75
6590,-0.88,-0.94,50.06,-0.37,-0.52,6.48
6600,2.19,-11.13,48.19,-1.03,0.66,6.65
6610,6.56,-21.94,52.19,-1.35,1.10,6.36
6620,10.00,-32.88,59.69,-0.83,0.67,5.27
6630,12.69,-38.50,64.12,-0.93,0.80,5.27
6640,15.63,-43.13,67.44,-0.77,0.75,5.61
6650,19.94,-47.56,71.19,-0.68,0.27,6.09
6660,24.50,-54.63,73.06,-0.74,-0.10,6.99
6670,25.31,-66.75,76.06,-0.35,-0.76,7.20
6680,25.62,-80.06,77.69,-0.22,-1.19,7.32
6690,25.94,-94.56,77.87,0.11,-2.50,6.92
6700,31.50,-107.31,76.06,0.19,-3.14,6.38
6710,38.50,-117.00,73.12,0.30,-3.89,5.81
6720,43.38,-125.81,68.69,0.63,-4.87,4.84
6730,46.56,-129.87,61.06,0.94,-6.49,2.91
6740,48.56,-131.62,52.06,1.32,-7.20,1.77
6750,49.19,-131.19,41.69,1.60,-7.77,1.07
6760,49.63,-131.75,31.25,2.36,-9.97,-1.01
6770,44.88,-136.37,16.94,2.57,-11.10,-2.43
6780,40.81,-137.31,-3.37,2.50,-12.08,-4.07
6790,37.69,-135.37,-28.37,1.65,-13.64,-8.20
6800,37.06,-128.00,-55.88,1.10,-14.07,-11.14
6810,32.13,-112.75,-85.56,0.22,-13.62,-14.01
6820,18.25,-87.81,-112.56,-0.40,-12.56,-15.93
6830,11.25,-54.13,-135.94,-1.52,-8.46,-17.77
6840,9.56,-14.94,-154.75,-2.13,-5.58,-16.75
6850,13.88,19.75,-161.87,-2.27,-3.70,-15.82
6860,12.88,47.81,-165.12,-3.03,0.09,-13.57
6870,2.94,71.25,-169.75,-4.19,3.21,-11.58
6880,-3.19,85.69,-163.37,-4.83,5.27,-11.19
6890,-11.13,99.62,-151.62,-5.72,7.84,-11.38
6900,-19.25,121.94,-130.94,-6.76,12.40,-7.69
6910,-24.12,134.19,-98.81,-6.70,12.81,-6.82
6920,-37.75,142.69,-67.00,-6.68,13.33,-5.21
6930,-52.44,147.44,-34.19,-5.87,12.26,-1.31
6940,-59.38,145.87,-2.62,-5.12,10.70,-0.23
6950,-63.31,147.19,21.06,-4.53,9.64,1.50
6960,-59.00,147.81,39.63,-4.21,8.73,3.89
6970,-49.19,141.94,55.31,-2.93,6.53,7.02
6980,-44.38,131.12,66.94,-2.45,5.74,8.46
6990,-45.19,112.12,77.62,-2.08,4.64,9.25
7000,-44.69,92.94,85.31,-1.37,3.87,10.93
7010,-40.81,71.12,93.81,-1.03,3.01,11.35
7020,-35.88,50.25,100.94,-0.58,2.20,11.47
7030,-35.56,30.00,104.37,-0.53,1.10,13.37
7040,-32.56,8.13,106.31,-0.65,0.60,14.06
7050,-25.31,-18.25,109.50,-0.39,-0.32,14.47
7060,-16.44,-48.19,110.56,-0.18,-1.36,14.21
7070,-8.25,-77.44,107.94,-0.62,-2.82,12.14
7080,1.62,-101.12,104.94,-0.53,-3.68,10.07
7090,11.50,-116.00,100.06,-0.82,-4.12,8.50
7100,19.00,-122.94,96.31,-0.61,-5.73,6.91
7110,24.12,-130.25,93.75,0.23,-7.07,6.20
7120,23.81,-138.81,87.94,0.76,-8.70,6.07
7130,24.75,-152.31,76.06,1.29,-10.36,5.85
7140,33.31,-170.00,57.38,2.11,-13.08,1.07
7150,43.38,-177.56,31.94,2.25,-13.77,-1.96
7160,45.25,-171.75,1.81,2.28,-13.47,-4.87
7170,42.00,-154.75,-26.56,1.56,-12.32,-8.00
7180,36.00,-128.69,-51.13,0.99,-11.59,-7.49
7190,28.81,-117.25,-71.81,0.29,-10.90,-8.41
7200,21.06,-114.31,-87.37,-0.11,-10.99,-10.80
7210,7.12,-104.19,-103.44,-0.66,-10.43,-15.74
7220,-6.00,-80.56,-119.56,-0.29,-10.13,-16.90
7230,-11.19,-44.31,-138.81,-0.54,-8.69,-16.87
7240,-6.75,-5.19,-157.00,-1.20,-4.35,-14.08
7250,0.94,26.50,-170.06,-1.86,-1.82,-12.92
7260,0.81,49.50,-177.62,-2.78,1.09,-12.05
7270,-3.50,68.31,-171.62,-4.02,4.34,-9.67
7280,-19.69,79.00,-155.00,-4.19,4.75,-8.95
7290,-38.69,85.00,-139.56,-4.47,5.89,-8.15
7300,-41.81,97.19,-123.31,-4.51,6.15,-7.24
7310,-41.06,110.44,-109.94,-4.89,7.33,-5.53
7320,-43.31,123.19,-98.44,-5.28,8.48,-4.41
7330,-45.94,132.19,-80.50,-5.21,8.74,-3.29
7340,-53.00,137.62,-59.50,-4.77,8.45,-1.13
7350,-61.81,143.00,-38.94,-4.63,8.25,0.15
7360,-69.87,144.06,-16.25,-4.45,7.62,1.43
7370,-78.12,141.06,4.87,-3.70,6.32,2.73
7380,-81.31,135.81,20.00,-3.30,4.38,5.00
7390,-80.87,128.94,32.38,-2.71,3.18,6.40
7400,-73.75,116.87,39.56,-1.94,2.01,6.85
7410,-62.88,105.37,39.81,-1.19,1.43,7.98
7420,-54.13,91.56,40.44,-0.63,0.87,8.27
7430,-43.31,74.81,39.75,-0.45,0.41,7.83
7440,-37.19,59.81,37.00,-0.45,0.33,7.45
7450,-31.25,47.75,35.00,-0.91,1.87,7.11
7460,-19.81,38.38,38.25,-0.83,2.20,6.38
7470,-15.94,29.00,44.13,-1.15,2.77,5.62
7480,-23.25,22.37,53.06,-1.55,3.40,6.42
7490,-30.81,11.88,64.69,-1.58,3.06,6.33
7500,-34.00,2.19,75.37,-1.51,2.60,6.43
7510,-30.19,-5.69,83.12,-1.50,1.33,6.61
7520,-23.25,-14.19,88.62,-1.79,1.02,6.61
7530,-11.81,-22.00,91.94,-2.01,0.72,6.15
7540,1.25,-27.87,95.56,-2.10,0.38,5.34
7550,11.94,-29.75,99.31,-1.98,0.00,5.47
7560,17.44,-32.44,103.69,-1.72,-0.14,5.99
7570,15.13,-39.75,108.69,-1.35,-0.65,6.33
7580,8.81,-49.75,111.81,-0.62,-1.58,7.65
7590,7.25,-60.31,111.62,-0.21,-2.05,8.21
7600,16.00,-72.19,110.00,0.00,-2.68,8.24
7610,23.69,-85.62,106.69,0.35,-3.47,8.34
7620,34.19,-97.50,100.75,0.13,-5.50,8.63
7630,42.25,-115.50,95.75,0.66,-7.00,7.12
7640,43.63,-132.94,86.19,1.12,-8.38,5.26
7650,39.63,-144.81,72.56,2.65,-10.58,1.56
7660,34.81,-151.94,55.00,3.33,-10.93,-0.28
7670,29.50,-152.69,34.88,3.64,-11.42,-1.23
7680,26.56,-152.75,14.31,3.73,-12.33,-2.52
7690,27.56,-151.75,-8.81,2.75,-14.59,-6.86
7700,27.56,-142.94,-36.25,2.49,-15.79,-9.04
7710,23.62,-129.56,-69.06,1.80,-16.11,-11.22
7720,19.94,-111.19,-102.62,0.00,-14.81,-14.64
7730,22.44,-91.69,-131.12,-0.43,-13.56,-17.51
7740,18.81,-63.81,-157.37,-1.05,-10.74,-18.87
7750,6.37,-29.62,-176.50,-2.49,-3.65,-17.87
7760,-2.69,2.12,-183.06,-3.16,-0.96,-16.95
7770,-9.19,32.38,-183.81,-4.22,1.89,-15.36
7780,-9.69,59.31,-179.69,-5.37,5.06,-13.90
7790,-11.00,79.87,-165.69,-6.50,9.49,-12.26
7800,-19.44,99.44,-145.94,-6.98,11.82,-11.07
7810,-32.50,119.50,-119.19,-7.05,12.85,-9.13
7820,-49.38,133.06,-88.37,-6.92,13.85,-5.70
7830,-63.63,145.31,-58.69,-6.96,13.80,-3.62
7840,-71.56,155.25,-26.50,-6.63,12.99,-1.48
7850,-77.12,159.44,3.81,-6.49,12.32,0.70
7860,-79.25,158.81,31.87,-5.24,9.89,5.52
7870,-75.50,151.62,55.38,-4.62,8.29,7.40
7880,-72.00,138.19,73.25,-3.99,6.84,9.19
7890,-65.06,121.12,85.37,-3.08,4.93,11.89
7900,-56.50,100.81,95.06,-2.68,4.03,12.51
7910,-47.81,78.94,104.12,-2.36,3.34,12.82
7920,-43.88,57.75,112.06,-1.54,2.09,15.23
7930,-40.56,33.19,119.81,-1.16,1.22,15.96
7940,-37.88,5.31,125.37,-0.86,0.48,16.32
7950,-31.56,-23.87,129.62,-0.62,0.00,16.44
7960,-20.87,-51.88,133.50,0.21,-2.07,15.39
7970,-7.31,-76.19,134.75,0.40,-2.99,14.54
7980,6.50,-96.87,131.94,0.32,-4.09,13.90
7990,25.12,-113.19,127.94,0.21,-7.48,11.45
8000,40.06,-130.81,120.31,0.16,-9.23,9.83
8010,43.50,-147.87,109.69,0.62,-11.05,7.69
8020,39.25,-164.75,94.87,0.85,-12.91,4.82
8030,34.81,-174.44,73.75,1.07,-16.42,-0.67
8040,35.44,-177.62,47.00,1.48,-18.03,-3.96
8050,35.44,-175.50,13.69,1.38,-18.83,-7.99
8060,32.00,-160.81,-23.56,1.12,-18.10,-13.57
8070,31.06,-136.19,-58.75,1.37,-17.46,-15.56
8080,28.56,-107.19,-93.00,1.41,-16.08,-16.37
8090,24.75,-77.37,-125.37,1.36,-14.08,-16.66
8100,24.31,-49.00,-153.44,0.39,-9.02,-16.93
8110,22.87,-20.44,-175.00,-0.18,-6.19,-16.21
8120,18.44,4.44,-186.37,-0.55,-4.30,-15.16
8130,11.06,24.75,-194.00,-2.10,-0.25,-13.12
8140,3.94,42.25,-200.81,-3.54,3.07,-12.15
8150,-1.94,55.63,-198.50,-4.68,5.77,-11.85
8160,-10.25,67.06,-184.44,-5.52,7.79,-12.18
8170,-27.62,81.81,-163.56,-6.66,11.18,-10.61
8180,-45.00,94.81,-137.31,-7.10,11.84,-9.84
8190,-45.00,94.81,-137.31,-7.48,12.63,-8.66
8200,-66.25,124.56,-80.19,-7.04,11.66,-5.49
8210,-74.75,135.81,-51.81,-6.74,10.92,-3.91
8220,-81.31,142.87,-26.19,-6.22,9.82,-2.63
8230,-86.87,149.00,-3.56,-4.96,7.17,1.94
8240,-86.87,149.00,-3.56,-4.48,5.90,4.11
8250,-91.00,150.69,13.38,-4.03,4.64,5.18
8260,-81.50,133.81,36.06,-3.70,3.90,6.02
8270,-78.31,123.12,43.19,-3.13,3.04,7.61
8280,-75.94,109.87,50.38,-3.06,2.81,8.08
8290,-75.94,109.87,50.38,-2.97,2.72,9.02
8300,-75.56,97.44,57.81,-2.42,1.88,10.64
8310,-74.12,63.13,74.25,-2.11,1.28,10.91
8320,-64.75,45.88,79.44,-1.88,0.97,10.86
8330,-55.38,30.94,82.62,-1.75,0.95,11.14
8340,-55.38,30.94,82.62,-1.65,1.00,12.30
8350,-45.00,17.19,86.06,-1.72,0.77,12.93
8360,-27.87,-19.69,95.31,-1.68,0.37,12.83
8370,-18.44,-40.19,99.37,-1.61,-0.42,12.24
8380,-6.25,-58.81,102.75,-1.57,-1.03,11.56
8390,-6.25,-58.81,102.75,-1.59,-1.38,11.37
8400,4.69,-74.50,104.62,-1.59,-2.18,10.88
8410,19.25,-107.44,110.62,-1.03,-4.44,9.42
8420,22.56,-121.75,111.69,-0.51,-6.31,8.68
8430,25.81,-135.00,107.12,0.10,-7.89,8.21
8440,25.81,-135.00,107.12,1.11,-10.44,6.94
8450,30.75,-148.12,96.44,1.73,-11.87,5.24
8460,50.31,-172.44,65.50,2.24,-13.12,3.34
8470,48.31,-180.62,45.81,2.51,-15.43,-0.05
8480,41.63,-186.44,26.25,2.91,-17.07,-2.30
8490,41.63,-186.44,26.25,2.91,-17.07,-2.30
8500,31.44,-190.56,2.37,3.39,-18.71,-4.75
8510,7.12,-176.44,-72.50,2.88,-19.49,-12.00
8520,5.69,-154.31,-118.50,2.18,-18.16,-13.91
8530,14.56,-118.62,-162.44,1.32,-16.14,-14.40
8540,14.56,-118.62,-162.44,1.32,-16.14,-14.40
8550,26.19,-83.31,-201.69,-1.43,-9.55,-13.81
8560,27.37,-41.31,-246.62,-3.93,-1.66,-15.66
8570,14.81,-18.19,-254.06,-5.76,3.93,-15.57
8580,9.13,6.31,-239.50,-7.68,10.84,-16.61
8590,9.13,6.31,-239.50,-7.68,10.84,-16.61
8600,0.56,34.25,-210.87,-8.19,13.01,-16.06
8610,-30.25,94.25,-141.44,-7.80,15.12,-11.83
8620,-42.13,119.31,-106.62,-7.60,15.00,-9.79
8630,-53.13,139.62,-72.94,-7.26,14.44,-7.64
8640,-53.13,139.62,-72.94,-7.26,14.44,-7.64
8650,-64.62,150.81,-41.50,-6.78,13.50,-4.00
8660,-72.56,159.31,-12.88,-5.53,10.88,-0.34
8670,-72.50,163.94,17.37,-5.14,9.54,0.84
8680,-68.94,165.94,42.50,-3.76,6.37,3.44
8690,-66.62,167.44,63.56,-3.76,6.37,3.44
8700,-67.00,167.94,79.44,-3.53,5.00,4.53
8710,-63.88,165.75,89.19,-2.76,2.49,9.23
8720,-62.19,160.62,97.69,-2.35,1.87,10.24
8730,-62.31,145.87,105.62,-1.96,1.68,10.92
8740,-64.87,121.31,110.56,-1.96,1.68,10.92
8750,-71.19,96.69,114.62,-1.56,1.42,11.94
8760,-72.94,72.50,117.69,-1.31,1.51,16.00
8770,-65.94,48.50,120.94,-0.90,0.53,16.72
8780,-50.81,19.44,128.81,-0.43,-0.62,16.97
8790,-38.19,-17.94,134.06,-0.43,-0.62,16.97
8800,-32.56,-51.50,133.50,-0.45,-0.96,17.50
8810,-21.31,-86.75,133.00,-1.03,-2.39,16.08
8820,-7.06,-120.69,131.87,-2.03,-5.88,14.27
8830,10.31,-150.06,130.12,-1.87,-8.16,10.44
8840,27.00,-184.87,124.94,-1.87,-8.16,10.44
8850,35.56,-211.94,113.62,-1.82,-9.91,5.97
8860,38.94,-215.25,95.81,-1.25,-13.80,-0.73
8870,40.00,-210.19,81.87,-0.76,-16.39,-1.94
8880,40.31,-203.25,65.56,0.38,-19.33,-8.44
8890,39.94,-200.75,39.56,0.38,-19.33,-8.44
8900,33.44,-196.56,4.25,0.51,-20.12,-10.97
8910,28.56,-179.19,-37.44,-0.47,-17.68,-15.95
8920,27.56,-153.44,-80.62,-0.87,-13.63,-18.70
8930,32.31,-120.06,-115.50,-0.63,-11.12,-19.48
8940,39.44,-84.12,-141.69,-0.63,-11.12,-19.48
8950,41.19,-45.06,-161.81,-0.48,-8.76,-19.12
8960,40.56,-6.19,-175.87,-1.38,-1.57,-14.51
8970,40.88,26.44,-188.31,-2.45,1.19,-12.85
8980,39.50,50.94,-196.75,-3.27,3.10,-12.38
8990,36.81,63.19,-194.50,-3.27,3.10,-12.38
9000,28.75,71.62,-187.00,-4.69,6.54,-11.57
9010,23.44,82.69,-176.19,-5.54,9.20,-11.40
9020,20.44,98.19,-159.94,-5.96,10.93,-9.02
9030,9.63,114.87,-140.31,-5.85,10.69,-7.42
9040,-6.37,129.25,-115.87,-5.85,10.69,-7.42
9050,-23.25,140.44,-90.12,-5.73,10.13,-6.11
9060,-36.56,149.75,-67.12,-5.10,8.50,-0.51
9070,-47.00,158.56,-45.75,-4.87,7.81,1.16
9080,-54.19,160.12,-25.50,-4.43,6.91,2.62
9090,-62.19,156.31,-6.56,-4.43,6.91,2.62
9100,-68.31,149.00,9.63,-3.38,5.11,4.87
9110,-69.56,142.06,21.37,-3.02,4.20,7.38
9120,-65.06,135.37,30.44,-2.52,3.88,9.82
9130,-57.13,124.94,39.00,-2.30,3.43,10.12
9140,-50.19,108.62,47.25,-2.30,3.43,10.12
9150,-45.94,86.75,56.19,-2.08,2.82,9.94
9160,-43.00,66.44,63.31,-1.63,1.60,8.81
9170,-40.38,49.56,69.69,-1.42,1.28,8.80
9180,-38.13,36.88,75.75,-1.39,1.24,9.43
9190,-37.44,28.06,79.25,-1.39,1.24,9.43
9200,-33.63,18.50,82.06,-1.53,1.33,10.90
9210,-23.37,5.94,87.31,-1.54,1.03,11.26
9220,-11.44,-9.94,92.75,-1.47,0.59,11.35
9230,-4.00,-29.25,97.44,-1.66,0.31,11.10
9240,-3.69,-50.50,101.69,-1.32,-0.74,10.62
9250,-0.88,-70.94,106.87,-1.43,-1.64,9.74
9260,2.50,-85.12,108.06,-1.36,-2.23,10.00
9270,11.50,-96.62,108.81,-0.67,-4.90,9.49
9280,22.19,-109.94,106.81,-0.29,-6.04,9.44
9290,30.81,-123.62,100.75,0.12,-7.38,9.09
9300,39.75,-138.56,92.00,0.43,-8.79,8.81
9310,45.19,-156.56,81.50,1.34,-12.51,5.82
9320,44.38,-176.00,67.31,2.00,-14.22,3.91
9330,35.75,-187.06,47.13,2.85,-16.13,2.51
9340,27.25,-196.31,21.62,4.35,-21.19,-2.60
9350,18.19,-200.06,-15.00,4.74,-23.19,-5.58
9360,10.25,-192.94,-65.56,4.40,-24.02,-8.39
9370,13.81,-173.37,-125.19,1.38,-21.36,-13.03
9380,27.44,-142.31,-187.44,-1.06,-16.51,-13.59
9390,46.75,-110.19,-234.31,-2.39,-11.96,-14.54
9400,66.00,-86.69,-259.37,-3.96,-6.68,-17.04
9410,60.44,-64.00,-267.37,-6.45,3.12,-19.40
9420,36.19,-37.38,-258.37,-7.17,6.84,-20.05
9430,15.69,-7.44,-235.87,-7.76,9.29,-20.18
9440,-6.19,29.56,-208.00,-8.70,13.64,-17.78
9450,-32.63,62.31,-176.37,-8.81,14.80,-16.05
9460,-60.13,90.31,-137.87,-8.24,14.79,-13.77
9470,-81.94,114.62,-100.62,-8.10,14.95,-11.58
9480,-91.31,135.94,-65.94,-7.53,15.04,-6.35
9490,-88.25,152.69,-30.25,-7.02,14.03,-4.84
9500,-86.94,161.50,3.37,-6.61,13.04,-2.91
9510,-91.62,169.00,33.13,-5.26,10.41,1.89
9520,-94.44,167.62,60.88,-4.52,8.69,3.69
9530,-94.12,162.87,82.12,-4.30,7.22,5.35
9540,-93.37,154.37,98.94,-3.02,4.28,9.32
9550,-96.12,137.94,113.87,-2.25,2.96,10.49
9560,-97.37,114.56,121.37,-2.08,2.64,11.74
9570,-91.06,92.06,124.87,-1.86,2.37,12.65
9580,-79.75,70.12,130.19,-1.24,1.32,15.09
9590,-67.50,46.56,134.44,-1.09,0.80,16.20
9600,-54.25,18.06,138.12,-0.99,0.14,16.50
9610,-42.63,-13.25,141.00,-0.63,-1.02,15.61
9620,-33.00,-38.13,143.44,-0.33,-1.85,16.10
9630,-27.87,-61.06,145.25,-0.05,-2.78,16.57
9640,-19.50,-87.37,146.25,0.55,-4.17,16.79
9650,-7.94,-113.62,142.69,0.96,-7.11,16.78
9660,5.94,-144.37,134.37,0.91,-8.71,14.87
9670,21.75,-175.25,123.69,1.22,-10.60,12.54
9680,31.50,-200.06,110.06,1.50,-15.86,7.17
9690,33.50,-222.69,89.25,1.63,-18.27,3.20
9700,31.87,-235.37,56.88,1.57,-19.88,0.07
9710,29.00,-235.00,16.12,1.35,-21.06,-3.14
9720,27.75,-228.37,-29.62,-0.53,-19.54,-11.07
9730,25.31,-209.37,-75.06,-1.33,-18.08,-13.71
9740,24.12,-182.44,-113.87,-1.97,-16.63,-16.92
9750,22.62,-151.12,-148.94,-4.61,-9.29,-20.78
9760,20.44,-110.19,-172.37,-4.95,-6.11,-21.69
9770,24.00,-71.25,-175.87,-4.39,-4.33,-23.26
9780,11.94,-31.06,-174.75,-4.34,0.59,-20.71
9790,-3.19,15.19,-174.56,-4.52,2.35,-17.65
9800,0.44,53.25,-170.44,-4.48,4.01,-15.68
9810,1.94,75.37,-164.00,-4.90,5.55,-14.07
9820,0.31,93.31,-154.00,-5.70,8.68,-11.82
9830,-9.31,106.00,-135.44,-6.02,9.15,-11.53
9840,-25.06,116.81,-112.56,-6.07,9.07,-10.98
9850,-40.06,134.31,-90.31,-5.91,8.77,-7.74
9860,-48.88,151.56,-68.75,-5.69,8.18,-6.21
9870,-55.06,163.00,-47.75,-5.43,7.35,-4.52
9880,-63.50,171.44,-29.37,-5.17,6.70,-2.60
9890,-69.87,173.62,-11.81,-3.91,4.54,0.36
9900,-71.19,175.75,3.06,-3.54,3.53,1.94
9910,-70.12,177.00,12.44,-2.99,2.62,3.58
9920,-67.12,173.94,18.31,-2.17,1.79,6.41
9930,-64.69,166.06,22.25,-1.88,1.33,7.34
9940,-65.87,151.81,26.31,-1.57,0.85,8.05
9950,-66.56,136.94,29.50,-1.38,0.46,8.89
9960,-62.81,120.69,31.44,-0.70,-0.39,9.81
9970,-58.13,101.81,31.56,-0.63,-0.63,10.25
9980,-52.69,81.81,30.06,-0.36,-1.01,9.99
9990,-45.94,61.19,27.19,-0.41,-0.63,8.66
10000,-41.38,46.69,21.87,-0.85,0.20,8.20
10010,-34.31,35.50,20.50,-0.98,0.47,7.54
10020,-28.12,26.06,22.25,-1.86,2.91,6.52
10030,-27.25,21.12,23.00,-2.48,4.26,7.05
10040,-20.25,16.94,35.38,-2.20,4.09,6.81
10050,-13.13,10.69,51.50,-2.30,4.22,6.63
10060,-15.81,3.69,64.75,-2.38,4.36,7.98
10070,-17.31,-7.62,79.94,-2.30,3.98,8.03
10080,-14.25,-20.25,92.69,-2.37,3.75,8.24
10090,-7.31,-31.37,102.69,-2.60,3.32,9.27
10100,4.69,-43.94,111.56,-2.52,3.22,9.62
10110,14.13,-57.56,120.75,-2.30,2.88,9.39
10120,22.31,-70.56,130.00,-2.27,2.50,9.36
10130,24.00,-81.62,138.69,-2.61,0.52,11.37
10140,23.94,-97.56,147.56,-2.31,-1.09,11.92
10150,27.37,-120.81,152.06,-2.33,-2.95,11.97
10160,37.31,-145.62,152.37,-1.43,-7.81,10.28
10170,44.38,-173.12,147.19,-0.94,-10.80,8.15
10180,49.69,-198.75,135.62,0.14,-14.61,4.46
10190,47.75,-215.87,114.37,1.19,-17.67,0.06
10200,38.75,-212.56,80.50,2.96,-22.81,-5.49
10210,28.69,-199.69,42.88,4.49,-25.42,-9.38
10220,12.88,-181.62,-8.00,4.74,-26.20,-11.49
10230,7.56,-146.69,-70.00,3.15,-24.02,-11.92
10240,25.31,-121.75,-129.50,1.75,-20.77,-14.05
10250,46.75,-105.00,-182.50,0.15,-16.07,-16.54
10260,54.69,-86.87,-219.81,-2.46,-6.94,-22.55
10270,40.19,-60.75,-237.94,-3.46,-2.17,-22.53
10280,15.50,-19.25,-243.31,-4.67,2.35,-21.32
10290,6.87,25.75,-238.12,-5.89,6.98,-19.91
10300,6.06,65.50,-221.19,-7.60,13.56,-17.27
10310,2.44,94.44,-191.12,-8.39,16.36,-16.90
10320,-12.31,120.19,-155.00,-8.64,18.40,-15.20
10330,-31.94,147.25,-110.06,-7.97,17.96,-11.15
10340,-53.88,168.50,-63.69,-7.68,17.02,-8.02
10350,-79.50,187.12,-20.75,-7.35,15.51,-4.81
10360,-95.37,196.87,19.87,-6.79,13.67,-1.99
10370,-97.62,202.31,53.50,-5.36,9.77,3.02
10380,-90.06,204.25,81.37,-4.70,7.35,5.36
10390,-85.62,197.75,98.87,-4.40,5.50,7.89
10400,-86.62,180.19,109.00,-3.22,2.15,11.09
10410,-89.56,151.87,114.81,-3.14,1.37,11.65
10420,-88.00,125.50,116.37,-2.73,0.88,12.42
10430,-87.12,101.62,117.81,-2.33,0.48,13.92
10440,-82.94,76.37,119.37,-2.07,0.40,19.69
10450,-72.56,41.00,125.62,-1.27,-0.96,21.49
10460,-54.88,-9.06,131.75,-0.86,-2.29,21.77
10470,-40.31,-62.75,130.00,-0.60,-4.02,19.70
10480,-26.19,-113.44,125.75,-0.45,-5.14,16.98
10490,-10.88,-151.37,119.62,-0.60,-6.20,16.28
10500,2.50,-173.12,110.69,-0.46,-8.97,14.00
10510,21.44,-198.44,97.81,-0.78,-10.29,12.91
10520,36.19,-218.87,83.06,-0.30,-12.61,11.07
10530,49.63,-244.00,67.25,0.17,-15.48,6.52
10540,55.81,-263.06,40.13,0.07,-19.13,-2.82
10550,53.88,-260.69,6.50,0.21,-21.38,-7.33
10560,49.81,-247.69,-32.06,0.08,-22.61,-12.30
10570,47.06,-216.00,-80.75,-1.13,-19.60,-17.00
10580,43.31,-169.94,-128.81,-1.74,-16.92,-18.22
10590,46.63,-129.62,-164.94,-1.95,-14.52,-20.25
10600,42.56,-93.69,-191.06,-2.02,-11.48,-21.86
10610,30.25,-51.00,-211.12,-2.82,-5.04,-20.38
10620,27.62,-5.37,-223.00,-3.23,-2.33,-18.63
10630,31.87,34.69,-228.75,-3.71,-0.29,-16.31
10640,39.00,64.75,-231.06,-5.39,4.60,-13.72
10650,38.88,82.94,-231.44,-6.63,8.16,-13.31
10660,32.13,96.44,-220.62,-7.61,10.56,-12.67
10670,17.50,107.94,-194.12,-7.66,11.66,-12.67
10680,-8.25,116.87,-162.50,-8.53,13.67,-12.55
10690,-39.75,133.94,-128.62,-8.54,13.45,-11.41
10700,-63.44,154.37,-88.37,-7.80,11.71,-10.13
10710,-81.56,175.56,-53.25,-6.59,8.52,-5.62
10720,-94.81,194.81,-26.69,-6.16,6.57,-3.61
10730,-96.81,207.31,-7.12,-5.88,5.42,-2.02
10740,-96.75,214.12,6.50,-4.52,3.76,2.01
10750,-102.12,213.87,15.63,-4.53,3.99,3.31
10760,-99.50,210.81,21.50,-4.56,3.99,4.37
10770,-91.81,207.06,30.44,-4.31,3.85,5.47
10780,-90.12,201.62,40.06,-3.93,3.93,8.37
10790,-92.94,188.37,51.63,-3.79,3.80,9.62
10800,-95.19,171.50,64.56,-3.67,3.38,10.84
10810,-95.44,151.12,77.31,-2.47,2.23,13.59
10820,-98.44,123.75,85.69,-2.41,2.37,14.81
10830,-95.00,90.69,90.31,-2.41,2.63,15.61
10840,-81.69,56.69,97.19,-2.10,2.35,16.03
10850,-69.31,21.25,104.81,-2.16,1.59,15.86
10860,-56.31,-13.31,110.37,-2.57,1.55,15.19
10870,-44.69,-42.31,117.06,-2.76,1.02,14.64
10880,-39.06,-68.12,124.62,-2.97,-0.43,14.01
10890,-34.06,-91.06,128.75,-2.89,-1.29,14.33
10900,-23.50,-112.25,132.00,-2.72,-2.58,14.13
10910,-9.31,-134.44,131.94,-2.80,-3.03,13.72
10920,3.87,-154.12,128.87,-3.01,-4.81,13.12
10930,17.06,-173.56,126.75,-2.94,-5.76,12.36
10940,28.44,-192.31,123.12,-2.74,-6.90,11.76
10950,34.50,-211.31,119.44,-2.26,-9.90,8.03
10960,28.94,-230.69,110.50,-2.03,-10.73,7.41
10970,18.00,-243.75,98.62,-1.08,-13.21,6.78
10980,12.50,-263.00,85.00,0.21,-18.37,1.00
