timestamp,gyrox,gyroy,gyroz,accx,accy,accz
10,-26.31,-22.94,-8.50,0.00,0.00,0.00
20,-25.81,-27.62,-15.75,0.00,0.00,0.00
30,-29.75,-37.25,-25.94,0.00,0.00,0.00
40,-32.19,-44.88,-33.63,4.33,-1.80,-17.49
50,-31.81,-46.88,-36.63,3.87,-1.71,-17.81
60,-26.00,-39.31,-33.56,3.10,-1.51,-18.72
70,-80.56,106.69,43.81,-1.87,0.19,6.79
80,-68.37,93.69,41.06,-1.90,0.97,7.87
90,-51.31,77.94,41.25,-1.81,1.06,7.01
100,-38.38,59.38,44.75,-1.96,1.42,6.23
110,-33.13,44.00,48.63,-1.96,1.42,6.23
120,-31.00,34.00,54.38,-1.98,1.61,5.84
130,-35.19,25.06,61.50,-2.26,2.53,6.60
140,-42.69,19.12,69.44,-1.93,2.16,7.77
150,-45.69,16.19,80.50,-1.87,1.97,8.49
160,-40.00,10.63,91.62,-1.87,1.97,8.49
170,-30.94,-2.56,99.44,-1.80,1.78,8.89
180,-28.25,-20.25,105.75,-1.91,1.27,9.31
190,-27.06,-40.38,111.94,-2.08,0.62,8.98
200,-22.19,-61.50,119.19,-1.96,-0.86,7.78
210,-17.25,-81.50,125.37,-1.96,-0.86,7.78
220,-12.50,-98.12,129.69,-1.83,-1.82,7.34
230,-5.50,-111.06,129.75,-1.39,-3.11,6.47
240,4.12,-121.06,126.37,-0.85,-4.41,5.81
250,14.56,-130.75,121.87,-0.34,-5.34,5.39
260,24.25,-138.75,117.50,-0.34,-5.34,5.39
270,35.19,-147.69,112.12,0.43,-6.45,4.48
280,44.94,-155.44,105.37,2.72,-11.13,2.70
290,54.13,-159.00,94.81,3.77,-13.33,0.39
300,60.94,-167.31,82.87,5.03,-15.91,-2.91
310,58.06,-175.87,64.69,5.03,-15.91,-2.91
320,40.13,-173.87,33.13,6.44,-19.67,-9.73
330,15.50,-153.19,-15.06,5.48,-18.62,-10.83
340,1.06,-115.50,-71.00,2.17,-14.36,-10.61
350,5.81,-81.50,-122.06,0.44,-11.60,-11.95
360,12.94,-61.81,-163.87,0.44,-11.60,-11.95
370,4.69,-58.38,-192.62,-1.06,-8.56,-14.53
380,-16.62,-53.06,-211.81,-5.97,4.15,-19.68
390,-35.69,-29.44,-222.87,-7.38,8.34,-18.56
400,-46.25,12.63,-221.06,-8.21,11.31,-16.92
410,-41.69,61.94,-198.94,-8.21,11.31,-16.92
420,-29.75,107.19,-161.56,-8.63,14.32,-12.74
430,-34.06,143.69,-119.37,-8.58,14.43,-7.14
440,-58.13,161.19,-75.87,-6.92,12.21,-2.02
450,-88.00,166.19,-32.81,-5.99,10.17,-0.64
460,-103.75,165.31,8.75,-5.99,10.17,-0.64
470,-109.37,162.94,39.88,-5.38,8.67,1.01
480,-112.81,161.56,60.19,-4.10,5.26,6.88
490,-106.62,158.87,76.62,-3.73,4.09,8.39
500,-95.87,147.69,91.25,-3.36,2.86,9.82
510,-94.87,128.81,102.19,-3.36,2.86,9.82
520,-101.06,101.94,110.62,-2.55,1.21,11.83
530,-102.00,72.75,115.56,-2.09,0.13,14.21
540,-91.31,46.00,117.94,-1.78,-0.41,15.34
550,-73.00,18.44,119.44,-1.09,-1.83,16.60
560,-55.06,-12.81,119.12,-1.09,-1.83,16.60
570,-41.13,-47.44,117.50,-0.76,-2.50,16.75
580,-31.69,-85.31,113.44,-0.34,-4.61,17.12
590,-19.81,-119.81,109.06,-0.74,-5.50,16.84
600,1.37,-151.81,104.25,-0.71,-6.56,15.99
610,28.50,-184.31,97.12,-0.71,-6.56,15.99
620,52.75,-219.44,91.75,-0.46,-10.78,7.76
630,54.88,-250.69,83.56,0.14,-14.22,2.52
640,35.63,-263.19,66.56,0.14,-14.22,2.52
650,25.56,-261.62,45.81,0.78,-16.93,-1.17
660,20.12,-257.31,19.87,1.62,-21.24,-11.22
670,-0.44,-233.37,-21.62,1.73,-21.96,-12.58
680,-20.37,-186.00,-75.87,0.98,-21.09,-12.49
690,-24.31,-146.94,-131.00,-1.67,-17.21,-14.61
700,-11.50,-122.50,-175.81,-2.53,-14.36,-17.66
710,4.62,-95.62,-211.37,-3.41,-10.41,-20.07
720,7.12,-58.13,-235.56,-3.87,-6.46,-20.94
730,5.62,-12.81,-243.44,-4.17,-1.38,-18.82
740,9.56,35.31,-244.69,-4.70,1.15,-16.55
750,17.31,77.94,-245.56,-5.73,4.09,-14.81
760,25.44,108.94,-240.81,-7.73,10.48,-12.09
770,32.31,133.06,-224.31,-8.58,13.43,-11.10
780,25.62,147.00,-191.75,-8.91,15.62,-9.65
790,-2.87,150.75,-142.87,-8.61,15.73,-7.93
800,-41.50,143.75,-87.81,-6.75,12.32,-6.56
810,-73.44,144.87,-43.56,-6.21,10.63,-4.35
820,-79.56,159.69,-12.00,-5.67,8.62,-1.84
830,-69.87,168.69,11.00,-3.61,4.95,1.18
840,-60.88,168.87,22.62,-3.12,4.10,2.87
850,-57.69,165.62,26.44,-2.75,3.25,4.27
860,-55.25,155.81,28.75,-2.48,2.61,6.25
870,-54.75,141.69,31.25,-2.11,1.73,6.77
880,-56.88,122.56,36.44,-1.89,1.20,6.72
890,-61.69,105.00,38.50,-1.98,1.10,7.15
900,-64.75,90.19,39.13,-2.11,1.85,8.44
910,-64.12,75.50,39.31,-2.54,2.52,9.16
920,-59.13,56.50,43.00,-2.66,2.82,9.03
930,-48.50,36.06,50.13,-2.93,3.31,7.50
940,-39.13,20.75,59.94,-3.01,3.41,6.78
950,-35.56,11.63,71.25,-2.99,3.34,6.96
960,-33.56,7.87,83.75,-2.61,2.76,7.63
970,-29.87,4.06,95.19,-2.09,1.54,9.45
980,-30.37,-5.87,102.44,-1.93,1.24,10.27
990,-28.25,-19.69,108.50,-1.92,0.82,10.69
1000,-20.75,-35.88,114.12,-1.67,-0.29,11.77
1010,-12.44,-56.13,119.62,-1.11,-1.31,11.44
1020,-3.81,-79.00,123.94,-0.44,-2.51,10.87
1030,0.81,-100.62,122.37,0.38,-3.43,10.33
1040,3.37,-119.00,116.19,1.14,-5.58,9.24
1050,7.44,-133.75,105.25,1.07,-5.93,9.10
1060,12.81,-145.00,91.31,0.69,-6.05,9.33
1070,26.62,-158.37,80.50,1.00,-8.39,7.38
1080,40.75,-178.25,73.06,1.43,-9.82,5.84
1090,42.75,-198.75,60.19,1.90,-11.39,4.38
1100,37.13,-221.00,42.69,1.63,-14.82,-1.72
1110,36.19,-239.12,20.19,1.66,-17.26,-5.76
1120,39.13,-243.12,-7.44,1.51,-19.58,-11.55
1130,32.56,-234.87,-43.75,0.78,-20.34,-17.52
1140,14.81,-197.94,-88.94,-1.21,-19.34,-22.62
1150,1.19,-136.69,-136.62,-2.71,-15.45,-22.61
1160,-5.56,-77.56,-176.62,-3.92,-10.95,-22.15
1170,-8.44,-31.44,-194.81,-3.87,-4.72,-21.90
1180,-16.75,7.25,-201.31,-4.43,-0.58,-20.49
1190,-27.75,49.81,-209.19,-5.56,3.91,-18.20
1200,-29.12,92.37,-209.44,-7.11,8.17,-15.46
1210,-22.44,126.25,-193.81,-8.89,13.75,-11.34
1220,-19.56,144.87,-161.31,-8.70,14.85,-10.22
1230,-29.44,156.25,-120.87,-8.72,15.37,-9.11
1240,-55.75,167.44,-80.00,-7.97,15.04,-4.37
1250,-87.06,175.62,-38.38,-7.64,14.18,-2.03
1260,-103.75,179.62,2.25,-7.10,12.91,0.44
1270,-104.69,183.00,38.88,-6.56,11.33,2.90
1280,-97.00,180.87,70.06,-4.36,7.13,6.41
1290,-87.87,174.00,90.75,-4.16,5.84,7.78
1300,-80.31,165.44,103.12,-4.01,5.00,9.51
1310,-75.75,152.37,114.31,-2.68,2.52,12.82
1320,-74.69,124.00,125.37,-2.11,1.32,13.12
1330,-74.50,91.75,132.75,-1.47,0.31,13.85
1340,-71.94,63.81,135.37,-0.62,-1.01,17.25
1350,-62.44,35.00,133.87,-0.19,-1.77,18.65
1360,-42.81,-1.12,131.31,0.02,-2.56,18.97
1370,-17.31,-42.88,126.19,0.05,-3.22,18.63
1380,5.37,-83.06,119.75,0.15,-4.77,17.35
1390,25.00,-120.94,114.37,0.42,-6.45,15.85
1400,43.63,-156.56,108.12,0.52,-8.20,13.56
1410,52.81,-184.75,97.25,0.97,-12.03,9.38
1420,52.00,-207.62,83.19,1.42,-14.35,6.17
1430,52.63,-225.87,64.25,1.60,-16.11,2.20
1440,47.38,-232.37,36.19,1.69,-17.97,-1.14
1450,34.38,-228.06,1.06,1.28,-21.55,-8.61
1460,33.13,-215.31,-40.63,1.06,-22.05,-13.29
1470,37.44,-183.75,-90.00,0.19,-20.81,-15.50
1480,38.00,-134.94,-141.31,-2.10,-15.78,-16.61
1490,46.50,-94.94,-178.06,-2.36,-13.49,-18.16
1500,50.13,-64.25,-201.62,-2.33,-11.13,-19.24
1510,43.19,-28.94,-222.19,-2.85,-7.95,-19.30
1520,41.56,14.63,-240.37,-4.64,-0.50,-16.30
1530,47.44,57.44,-246.75,-5.30,2.57,-14.53
1540,50.19,89.12,-242.87,-6.36,6.04,-12.53
1550,45.50,108.87,-230.56,-7.19,10.59,-9.49
1560,37.88,113.19,-205.94,-7.59,12.01,-9.73
1570,23.12,112.06,-176.94,-7.85,13.14,-9.63
1580,2.37,116.62,-145.00,-7.69,14.25,-9.08
1590,-15.69,125.12,-108.00,-7.46,13.71,-8.01
1600,-32.13,139.12,-69.12,-6.89,12.29,-6.18
1610,-50.56,151.94,-32.56,-6.40,10.83,-4.17
1620,-70.50,156.87,-1.50,-4.69,7.55,-0.82
1630,-82.81,158.87,24.62,-4.19,6.00,0.89
1640,-90.94,159.94,43.31,-3.72,4.75,2.68
1650,-96.44,154.94,57.44,-2.53,2.75,5.22
1660,-101.81,143.94,67.31,-2.16,2.21,6.60
1670,-105.25,130.87,72.69,-1.93,1.83,7.75
1680,-100.75,114.56,76.62,-1.91,1.81,8.51
1690,-92.37,97.69,80.56,-1.41,1.33,10.79
1700,-82.31,76.37,85.06,-1.29,0.98,11.04
1710,-70.56,50.44,88.69,-1.11,0.65,10.01
1720,-59.81,26.12,92.31,-0.88,0.54,8.31
1730,-55.13,14.06,94.25,-0.82,0.63,9.40
1740,-52.69,8.75,96.81,-0.66,0.54,10.65
1750,-47.38,-1.87,101.19,-0.68,0.44,11.72
1760,-40.50,-19.19,105.62,-0.72,-0.42,12.65
1770,-36.56,-43.38,109.81,-0.74,-0.72,12.54
1780,-35.88,-70.06,111.25,-0.72,-1.10,12.25
1790,-32.56,-96.00,112.25,-0.87,-2.27,10.66
1800,-27.75,-117.12,111.12,-1.01,-2.52,10.54
1810,-17.87,-130.62,106.50,-1.07,-2.80,10.74
1820,2.06,-141.19,102.69,-0.98,-4.12,10.39
1830,20.00,-154.81,99.56,-1.20,-4.63,10.05
1840,28.62,-170.75,94.94,-1.25,-5.39,10.13
1850,31.81,-189.00,92.06,-1.02,-6.95,10.06
1860,31.00,-215.94,88.56,-0.76,-11.61,7.61
1870,31.69,-246.37,78.44,-0.16,-14.60,4.95
1880,37.88,-274.37,60.38,0.50,-18.28,-0.38
1890,43.00,-292.12,28.44,0.14,-22.58,-13.07
1900,31.62,-280.75,-21.37,-0.22,-22.92,-16.15
1910,20.44,-232.81,-81.44,-1.07,-22.15,-18.46
1920,22.75,-178.12,-140.37,-2.37,-19.81,-20.71
1930,30.81,-123.12,-190.44,-4.64,-11.97,-22.46
1940,36.00,-68.00,-227.25,-5.69,-5.97,-22.28
1950,31.94,-19.81,-248.37,-6.79,0.12,-21.45
1960,19.62,18.75,-245.56,-7.41,8.40,-19.70
1970,1.37,51.63,-224.81,-8.13,11.97,-18.03
1980,-21.69,85.12,-197.56,-9.07,15.32,-15.19
1990,-35.44,118.81,-159.31,-9.38,17.13,-12.33
2000,-40.75,142.19,-106.94,-7.94,16.48,-8.42
2010,-57.00,153.44,-56.88,-7.55,15.78,-6.01
2020,-82.12,159.00,-11.63,-6.75,14.55,-3.59
2030,-95.25,163.12,29.25,-5.47,11.88,0.88
2040,-94.06,168.00,63.81,-4.86,10.24,3.21
2050,-88.31,167.94,92.75,-4.04,8.29,5.22
2060,-84.75,159.69,116.69,-2.51,4.96,9.34
2070,-92.62,119.31,144.25,-1.77,3.11,11.06
2080,-92.62,119.31,144.25,-0.80,1.18,12.02
2090,-93.81,88.06,150.62,-0.10,-0.09,12.46
2100,-89.31,60.38,149.25,1.00,-1.74,15.89
2110,-75.87,35.81,144.12,1.21,-2.60,17.53
2120,-21.19,-34.00,129.87,1.66,-3.48,18.54
2130,-21.19,-34.00,129.87,2.44,-6.54,16.87
2140,0.69,-77.75,120.62,2.45,-7.27,15.28
2150,17.50,-147.75,91.94,2.38,-8.03,15.12
2160,17.50,-147.75,91.94,2.31,-9.65,14.49
2170,50.50,-207.50,60.31,2.50,-14.59,7.86
2180,50.50,-207.50,60.31,2.44,-16.73,3.12
2190,45.06,-224.81,31.12,2.32,-17.84,-1.22
2200,30.00,-221.50,-5.12,1.52,-19.63,-7.16
2210,23.56,-175.50,-85.87,1.01,-20.31,-9.40
2220,23.37,-150.56,-130.50,0.33,-19.96,-11.64
2230,23.37,-150.56,-130.50,-0.45,-18.75,-14.10
2240,28.87,-120.37,-174.69,-2.49,-13.98,-18.74
2250,36.88,-77.94,-215.62,-3.83,-10.11,-18.82
2260,49.13,-26.06,-245.75,-4.71,-7.00,-18.04
2270,85.69,62.50,-266.12,-5.70,-0.60,-16.26
2280,85.69,62.50,-266.12,-6.29,2.47,-14.06
2290,101.06,99.69,-264.56,-7.10,5.29,-11.92
2300,92.12,119.81,-229.50,-7.72,8.57,-10.71
2310,55.00,115.81,-202.00,-8.20,10.03,-11.08
2320,16.31,120.00,-169.06,-8.89,12.26,-10.24
2330,-1.75,129.56,-124.37,-9.07,13.26,-9.20
2340,-22.25,139.50,-83.00,-7.65,11.70,-8.53
2350,-52.25,152.25,-49.00,-7.50,11.45,-7.31
2360,-71.37,167.56,-16.87,-7.23,11.00,-5.14
2370,-78.94,177.44,13.06,-5.87,8.87,-0.96
2380,-82.94,181.06,37.00,-5.09,7.05,0.84
2390,-88.75,179.19,52.44,-4.45,5.50,2.73
2400,-92.56,171.00,64.75,-3.98,4.61,4.67
2410,-91.00,158.31,74.12,-2.41,2.91,7.88
2420,-85.87,140.62,78.19,-1.88,2.10,8.81
2430,-76.44,122.75,78.37,-1.58,1.70,9.04
2440,-66.81,106.31,79.81,-1.68,2.23,10.42
2450,-55.25,86.12,86.50,-1.52,2.19,11.80
2460,-46.19,57.44,95.75,-0.92,1.71,12.61
2470,-40.75,26.31,100.62,-0.41,1.15,12.59
2480,-38.63,0.69,101.69,0.00,0.75,11.06
2490,-33.63,-17.00,102.56,-0.07,0.80,10.59
2500,-25.69,-29.00,104.81,-0.23,0.57,10.08
2510,-18.87,-38.06,107.25,-0.50,-0.11,10.87
2520,-18.87,-38.06,107.25,-0.48,-0.63,11.66
2530,-11.31,-51.94,110.00,-0.50,-1.50,11.27
2540,-7.69,-92.37,110.06,-0.61,-1.79,9.64
2550,-7.12,-105.56,108.62,-0.85,-1.58,9.95
2560,2.25,-119.56,111.06,-0.74,-2.02,9.46
2570,2.25,-119.56,111.06,-0.53,-2.55,8.57
2580,10.63,-130.00,111.81,-0.56,-4.03,9.06
2590,19.00,-162.75,113.94,0.09,-5.64,7.68
2600,13.06,-181.31,107.81,0.75,-7.18,5.77
2610,5.87,-193.19,95.50,2.07,-9.72,3.30
2620,5.87,-193.19,95.50,2.59,-11.20,1.89
2630,2.75,-201.31,76.87,2.73,-12.79,0.78
2640,7.87,-203.56,24.12,2.79,-14.51,-2.03
2650,-1.37,-190.62,-10.19,2.18,-16.33,-9.08
2660,-2.06,-161.87,-47.25,1.99,-16.95,-10.11
2670,-2.06,-161.87,-47.25,1.99,-16.95,-10.11
2680,3.75,-141.06,-83.56,-0.41,-16.23,-14.29
2690,2.06,-117.69,-151.62,-1.22,-15.40,-17.93
2700,-2.62,-89.75,-186.37,-2.34,-13.11,-21.89
2710,-1.00,-35.13,-213.75,-3.48,-9.49,-23.79
2720,-1.00,-35.13,-213.75,-3.48,-9.49,-23.79
2730,6.69,27.12,-226.44,-5.11,-0.75,-22.40
2740,24.87,130.37,-207.12,-6.70,7.20,-15.91
2750,13.31,148.06,-179.00,-7.58,12.02,-9.91
2760,-14.88,148.00,-143.31,-8.02,13.92,-8.02
2770,-14.88,148.00,-143.31,-8.02,13.92,-8.02
2780,-49.81,140.44,-100.19,-7.28,14.12,-5.02
2790,-96.50,145.75,-19.94,-6.92,13.29,-3.09
2800,-95.56,157.87,11.25,-6.72,12.67,-0.92
2810,-83.56,167.19,41.81,-6.43,11.98,1.12
2820,-83.56,167.19,41.81,-6.43,11.98,1.12
2830,-72.31,169.69,70.06,-5.08,9.90,4.60
2840,-88.12,144.94,115.25,-4.36,6.86,7.83
2850,-105.50,117.87,131.62,-2.64,3.61,11.15
2860,-105.56,89.00,141.19,-1.83,1.99,11.51
2870,-105.56,89.00,141.19,-1.83,1.99,11.51
2880,-96.87,66.62,141.62,-1.50,1.33,11.82
2890,-57.06,19.00,144.00,-0.74,-0.63,16.12
2900,-40.50,-18.12,143.19,-0.30,-1.91,15.96
2910,-29.44,-55.25,138.25,0.10,-3.23,15.38
2920,-29.44,-55.25,138.25,0.10,-3.23,15.38
2930,-21.75,-87.56,128.31,0.87,-5.18,12.88
2940,-2.25,-131.37,104.94,1.25,-5.62,12.38
2950,9.63,-156.06,95.94,1.46,-6.47,11.83
2960,16.25,-179.87,83.25,1.44,-8.76,8.88
2970,16.25,-179.87,83.25,1.44,-8.76,8.88
2980,28.81,-199.25,68.31,1.14,-9.97,6.84
2990,39.13,-214.69,52.75,0.78,-15.39,-4.26
3000,27.37,-226.06,31.37,0.50,-16.76,-7.11
3010,6.37,-219.31,2.62,0.37,-18.44,-10.33
3020,-13.75,-205.44,-31.06,0.37,-18.44,-10.33
3030,-31.19,-180.37,-71.81,-0.33,-18.78,-17.38
3040,-27.37,-128.69,-116.31,-1.49,-14.38,-17.81
3050,-7.44,-72.37,-154.37,-1.95,-11.08,-17.33
3060,17.00,-25.94,-179.56,-2.60,-4.84,-15.63
3070,41.56,15.56,-191.81,-2.60,-4.84,-15.63
3080,52.19,48.00,-194.37,-2.74,-2.75,-14.84
3090,37.13,71.19,-194.87,-5.16,5.06,-10.44
3100,24.37,91.50,-189.31,-5.63,6.52,-10.08
3110,24.62,105.12,-172.19,-6.20,7.79,-10.26
3120,17.12,117.06,-152.31,-6.20,7.79,-10.26
3130,6.50,135.00,-130.25,-6.49,9.06,-9.41
3140,0.75,150.56,-106.12,-6.31,10.39,-5.71
3150,-7.56,163.19,-81.69,-6.37,10.79,-4.16
3160,-16.56,171.06,-54.13,-5.80,10.45,-1.48
3170,-23.31,174.19,-23.00,-5.80,10.45,-1.48
3180,-30.25,174.37,8.69,-5.55,9.77,-0.26
3190,-43.63,170.75,39.25,-4.10,7.13,2.73
3200,-54.38,165.56,63.25,-2.88,5.30,5.47
3210,-50.13,158.94,80.44,-2.13,4.02,6.50
3220,-46.00,150.87,94.19,-2.13,4.02,6.50
3230,-48.50,138.62,100.69,-1.32,2.69,7.32
3240,-50.13,124.19,100.44,-0.38,0.74,11.00
3250,-50.75,101.00,100.37,0.08,-0.10,11.17
3260,-51.25,72.19,97.37,0.33,-0.32,11.96
3270,-43.06,48.88,90.75,0.33,-0.32,11.96
3280,-25.25,27.12,86.00,0.40,-0.29,12.14
3290,-5.50,3.62,83.44,0.52,-0.90,10.31
3300,7.12,-15.13,79.87,0.41,-0.73,9.78
3310,14.63,-26.75,76.37,-0.11,-0.34,10.02
3320,23.50,-37.69,75.00,-0.11,-0.34,10.02
3330,28.19,-54.31,78.87,-0.30,-0.29,10.13
3340,29.75,-72.37,83.31,-0.41,-0.61,8.08
3350,27.56,-86.12,86.56,-0.34,-0.46,7.99
3360,25.44,-94.19,91.19,-0.29,-0.75,8.22
3370,27.69,-100.87,97.12,-0.29,-0.75,8.22
3380,30.56,-111.25,101.37,-0.11,-2.22,8.76
3390,30.87,-127.87,103.37,0.37,-4.60,8.45
3400,30.69,-150.25,103.12,0.87,-8.09,6.14
3410,32.31,-171.06,98.81,0.97,-10.11,5.77
3420,33.06,-187.44,86.87,0.97,-10.11,5.77
3430,31.19,-210.81,70.44,1.14,-12.21,4.56
3440,26.56,-235.56,45.63,1.16,-20.89,-7.09
3450,12.81,-252.94,9.25,1.03,-22.51,-13.32
3460,-14.63,-250.31,-41.88,0.20,-21.80,-17.29
3470,-37.00,-209.12,-101.75,0.20,-21.80,-17.29
3480,-30.94,-147.00,-151.44,-1.83,-17.54,-19.17
3490,-8.44,-87.75,-188.56,-2.92,-10.91,-18.71
3500,11.31,-39.63,-213.56,-3.93,-4.15,-17.53
3510,15.06,-0.13,-230.31,-4.98,0.45,-16.76
3520,3.06,32.06,-241.81,-4.98,0.45,-16.76
3530,-9.56,62.88,-240.87,-6.44,5.34,-15.48
3540,-12.44,91.62,-217.87,-7.57,9.50,-14.34
3550,-17.25,119.31,-177.94,-8.31,14.42,-11.87
3560,-37.06,140.81,-130.62,-7.90,14.83,-9.87
3570,-65.06,153.06,-85.69,-7.50,14.41,-7.80
3580,-83.87,163.87,-45.63,-6.59,13.62,-3.23
3590,-87.00,171.12,-8.69,-6.00,12.93,-1.51
3600,-83.62,174.31,23.12,-5.85,12.06,0.27
3610,-80.06,172.94,52.94,-5.40,11.05,2.05
3620,-78.19,166.87,78.50,-4.01,8.60,5.29
3630,-76.37,156.44,99.81,-3.29,7.07,6.86
3640,-84.87,137.06,116.00,-3.19,5.71,8.02
3650,-98.94,110.50,129.19,-1.41,2.63,10.29
3660,-103.87,83.19,135.37,-0.69,1.29,10.56
3670,-101.25,62.00,134.62,-0.54,0.67,11.15
3680,-91.00,41.19,133.12,0.25,-0.87,15.15
3690,-70.69,12.00,129.31,0.64,-1.68,16.98
3700,-46.81,-28.50,122.31,1.20,-2.46,17.89
3710,-22.19,-74.31,112.44,1.13,-2.76,17.91
3720,-3.50,-120.37,104.56,0.85,-3.58,15.52
3730,7.12,-160.81,100.62,1.17,-4.55,13.83
3740,14.00,-193.31,96.31,1.53,-6.29,12.03
3750,15.94,-217.69,87.37,1.36,-10.17,7.76
3760,11.31,-239.00,74.06,1.27,-12.96,5.84
3770,9.38,-257.44,54.25,1.63,-16.06,2.57
3780,2.12,-267.25,21.06,1.57,-18.14,-2.15
3790,-5.94,-253.25,-20.69,0.83,-20.85,-10.64
3800,-8.19,-220.62,-68.94,0.53,-21.22,-14.39
3810,-6.37,-171.19,-120.81,-0.14,-20.68,-17.54
3820,0.19,-109.19,-171.12,-2.66,-16.50,-19.22
3830,15.81,-50.19,-211.31,-3.75,-12.45,-19.86
3840,37.63,10.56,-236.31,-4.80,-7.56,-19.36
3850,63.56,67.87,-238.50,-5.64,-2.77,-17.20
3860,71.12,102.44,-224.19,-5.64,3.07,-13.96
3870,44.50,121.00,-207.25,-6.20,5.57,-11.38
3880,14.75,125.37,-183.62,-6.69,7.69,-9.09
3890,0.88,126.31,-154.75,-7.09,9.17,-8.73
3900,-6.62,135.37,-126.94,-6.90,9.39,-8.80
3910,-14.25,149.37,-102.87,-6.92,9.71,-8.50
3920,-17.12,167.50,-79.00,-6.56,10.03,-6.29
3930,-14.06,183.69,-52.63,-6.29,9.48,-5.17
3940,-13.13,195.94,-27.81,-6.09,8.87,-3.88
3950,-19.44,201.56,-4.56,-5.87,8.23,-2.43
3960,-34.25,197.94,17.69,-4.67,6.29,-0.97
3970,-52.00,194.62,36.88,-4.36,5.13,0.05
3980,-63.94,193.44,52.56,-4.06,4.05,1.68
3990,-72.44,187.25,63.81,-2.43,1.59,4.36
4000,-77.00,177.62,67.62,-2.17,1.02,5.30
4010,-76.31,168.25,66.06,-2.00,1.08,6.54
4020,-74.19,153.69,64.69,-1.82,1.04,7.73
4030,-72.69,133.25,64.56,-1.55,1.73,9.47
4040,-69.19,111.19,68.87,-1.51,1.91,10.31
4050,-66.00,86.00,75.12,-1.17,1.57,10.75
4060,-61.88,60.88,79.69,-1.16,1.97,12.12
4070,-49.75,34.81,86.75,-1.07,1.93,12.56
4080,-36.38,5.81,95.31,-0.65,1.39,11.73
4090,-33.81,-17.69,100.56,-0.31,0.97,10.29
4100,-36.31,-28.75,104.25,-0.70,1.30,10.03
4110,-32.69,-37.00,111.12,-0.71,1.06,10.96
4120,-24.81,-50.81,118.37,-0.67,0.44,11.65
4130,-16.50,-70.06,122.62,-0.56,-1.58,12.48
4140,-10.69,-93.12,122.44,-0.29,-2.41,12.38
4150,-4.87,-118.00,117.81,-0.23,-2.96,12.29
4160,6.69,-143.06,111.94,-0.52,-4.62,11.36
4170,17.31,-166.87,104.94,-0.41,-5.14,10.66
4180,22.44,-190.62,99.56,-0.05,-6.22,10.22
4190,26.87,-215.31,93.69,0.32,-7.56,9.97
4200,27.87,-248.44,86.44,1.09,-12.78,6.19
4210,14.00,-286.25,70.44,2.06,-16.35,1.37
4220,-8.88,-301.37,33.75,2.71,-19.17,-3.57
4230,-27.37,-288.50,-19.31,2.14,-22.94,-13.42
4240,-41.50,-250.94,-84.06,1.07,-21.67,-17.74
4250,-35.13,-181.31,-150.69,-1.02,-18.00,-18.86
4260,7.00,-105.81,-197.81,-2.97,-13.68,-17.33
4270,43.13,-61.56,-221.50,-5.92,-3.67,-19.05
4280,28.31,-36.19,-225.25,-7.37,2.84,-20.19
4290,-11.81,-10.94,-201.69,-8.11,8.18,-20.82
4300,-46.56,27.12,-158.50,-7.82,14.23,-19.04
4310,-64.37,79.37,-109.44,-7.13,14.97,-14.67
4320,-61.19,121.75,-59.69,-6.92,14.71,-10.52
4330,-54.81,145.37,-12.44,-6.16,14.10,-6.35
4340,-50.81,144.69,25.56,-3.90,10.86,0.31
4350,-48.69,131.81,52.81,-2.63,8.87,1.54
4360,-45.31,123.19,67.62,-2.00,7.55,2.75
4370,-39.25,115.00,80.06,-0.77,5.15,5.64
4380,-34.31,100.06,92.00,-0.25,3.62,6.56
4390,-28.19,84.06,100.56,0.45,2.10,7.59
4400,-22.69,65.12,104.37,2.49,-1.47,8.94
4410,-18.87,45.31,100.56,3.01,-2.45,10.30
4420,-6.06,26.44,93.00,3.59,-3.45,12.35
4430,15.56,-0.06,83.81,4.17,-4.77,13.57
4440,30.75,-32.31,69.75,5.18,-7.33,13.56
4450,32.00,-66.19,51.38,5.69,-7.91,12.62
4460,25.00,-97.19,31.37,5.62,-8.02,11.39
4470,20.00,-116.06,12.13,5.01,-8.21,11.59
4480,28.94,-132.62,-4.12,4.64,-8.87,10.87
4490,35.25,-154.00,-21.50,4.33,-9.57,8.66
4500,31.00,-170.12,-43.38,3.54,-10.64,6.49
4510,30.00,-183.00,-71.50,-0.19,-12.74,-0.02
4520,26.81,-190.12,-104.19,-2.50,-12.46,-5.12
4530,19.37,-182.75,-134.87,-4.91,-11.46,-10.95
4540,8.25,-153.44,-157.75,-9.50,-5.07,-19.69
4550,4.25,-105.25,-161.44,-10.16,-1.91,-21.41
4560,13.19,-51.69,-147.12,-9.59,0.09,-22.80
4570,18.06,6.56,-129.62,-8.47,1.59,-23.61
4580,16.06,69.00,-114.12,-6.96,4.96,-18.34
4590,24.75,120.31,-96.25,-6.72,6.14,-14.33
4600,30.87,148.25,-74.87,-6.26,6.39,-10.69
4610,20.62,150.12,-55.13,-5.13,4.94,-6.72
4620,9.00,147.19,-40.63,-4.69,4.64,-6.38
4630,1.06,152.75,-30.06,-4.55,4.62,-5.75
4640,-2.37,163.69,-18.94,-3.58,4.43,-2.77
4650,-4.94,169.81,-6.75,-3.24,4.18,-1.58
4660,-11.19,173.31,4.44,-2.74,3.55,0.13
4670,-17.75,171.25,12.63,-2.39,2.75,1.44
4680,-24.12,166.12,18.00,-2.21,3.19,3.24
4690,-31.06,158.94,26.69,-1.99,2.84,4.14
4700,-39.25,149.31,35.13,-1.81,2.69,5.12
4710,-45.81,137.44,43.19,-1.35,2.97,7.71
4720,-45.50,121.12,52.25,-1.07,2.63,7.93
4730,-44.75,104.75,58.50,-1.06,2.82,8.40
4740,-41.19,90.19,65.56,-1.35,3.53,9.55
4750,-35.63,68.94,77.62,-0.71,3.00,10.36
4760,-37.06,45.00,89.19,-0.51,2.59,10.17
4770,-39.88,26.06,98.44,-0.50,2.38,10.63
4780,-38.69,6.56,107.94,0.37,0.63,11.18
4790,-37.81,-14.19,112.94,0.84,-0.20,11.04
4800,-35.13,-30.69,112.00,0.91,-0.55,11.38
4810,-26.19,-46.69,109.56,1.02,-0.79,12.01
4820,-12.56,-67.12,105.69,0.96,-1.78,12.53
4830,0.94,-91.06,101.00,0.68,-1.76,11.88
4840,11.94,-113.81,99.62,0.07,-1.74,11.40
4850,20.62,-138.94,103.06,0.08,-3.85,8.27
4860,19.31,-163.06,105.25,0.58,-5.17,5.92
4870,11.75,-175.56,100.56,0.82,-6.47,4.84
4880,9.19,-184.62,93.00,1.78,-10.13,2.27
4890,9.88,-195.00,79.94,2.41,-11.90,-0.05
4900,6.06,-196.31,57.63,2.97,-13.32,-1.56
4910,6.75,-193.00,28.62,3.49,-14.68,-3.12
4920,18.69,-182.00,-6.19,3.70,-17.26,-6.41
4930,30.25,-167.56,-45.19,3.53,-18.00,-8.37
4940,25.19,-155.69,-85.06,3.06,-18.52,-10.78
4950,11.69,-137.75,-126.06,1.47,-18.96,-15.98
4960,1.62,-106.00,-169.81,0.47,-17.85,-18.20
4970,-1.56,-59.69,-213.50,-0.61,-15.71,-19.15
4980,7.31,-5.25,-252.50,-2.04,-12.11,-18.54
4990,28.75,45.38,-278.87,-4.89,-3.43,-15.68
5000,46.69,85.44,-292.44,-6.81,1.97,-14.20
5010,45.31,110.69,-286.94,-8.88,7.77,-12.89
5020,18.50,120.62,-252.25,-11.61,16.73,-11.10
5030,-30.12,121.25,-192.19,-11.79,18.58,-10.48
5040,-88.00,123.19,-122.19,-11.02,18.51,-9.32
5050,-128.00,132.37,-58.31,-9.91,16.97,-7.91
5060,-139.75,152.00,-9.69,-8.35,14.39,-3.82
5070,-121.94,178.06,30.62,-7.47,12.98,-0.70
5080,-88.56,195.56,64.62,-6.25,10.95,0.93
5090,-70.50,206.87,86.62,-5.31,9.19,4.48
5100,-67.50,208.37,105.87,-5.29,8.29,7.27
5110,-70.56,191.37,129.87,-4.60,6.58,9.51
5120,-79.19,162.06,149.81,-2.42,2.49,11.93
5130,-97.19,127.94,158.06,-1.59,0.97,12.82
5140,-110.87,93.62,157.81,-1.31,0.06,13.71
5150,-108.44,64.75,153.94,-1.22,-0.32,14.98
5160,-94.50,33.06,150.44,-0.43,-1.83,18.49
5170,-76.37,-6.37,145.44,0.22,-2.86,20.26
5180,-57.50,-55.19,136.12,0.63,-3.87,20.77
5190,-43.25,-108.87,123.87,0.04,-4.55,17.83
5200,-33.06,-155.44,114.50,-0.18,-5.47,15.37
5210,-22.37,-186.06,105.25,-0.40,-6.04,13.45
5220,-7.87,-205.25,96.44,-0.76,-6.55,12.79
5230,-7.87,-205.25,96.44,-0.08,-10.71,9.04
5240,14.56,-251.87,74.50,0.14,-12.58,6.62
5250,18.50,-268.87,52.19,0.61,-14.95,3.59
5260,26.56,-278.12,20.44,0.21,-18.88,-6.96
5270,20.37,-269.81,-20.12,-0.26,-19.44,-12.16
5280,8.69,-240.06,-63.50,-0.85,-19.55,-16.16
5290,6.50,-193.31,-106.25,-1.64,-18.60,-18.84
5300,15.31,-142.00,-142.50,-2.93,-15.47,-21.13
5310,29.25,-96.81,-172.56,-2.92,-13.74,-23.53
5320,34.38,-47.25,-200.37,-3.00,-10.67,-26.45
5330,34.38,-47.25,-200.37,-4.39,-2.01,-24.42
5340,34.81,22.31,-221.12,-5.01,1.74,-20.44
5350,66.37,148.06,-218.87,-5.92,4.88,-16.61
5360,61.63,171.00,-201.44,-7.15,9.54,-11.43
5370,38.13,171.94,-174.81,-7.74,11.35,-11.04
5380,38.13,171.94,-174.81,-7.77,12.19,-10.50
5390,7.62,173.19,-139.75,-7.75,12.30,-9.43
5400,-46.38,197.06,-64.31,-6.82,11.44,-5.36
5410,-56.81,212.62,-30.12,-6.60,10.51,-2.37
5420,-52.25,221.50,1.69,-5.80,9.34,0.05
5430,-52.25,221.50,1.69,-4.02,6.95,3.68
5440,-41.81,224.00,25.75,-3.41,5.79,5.47
5450,-48.31,204.44,50.13,-2.92,4.92,7.24
5460,-58.19,183.31,54.75,-2.53,4.37,8.98
5470,-66.25,156.94,59.88,-1.59,3.54,11.62
5480,-66.25,156.94,59.88,-1.25,2.97,12.10
5490,-70.19,126.12,65.62,-1.13,2.57,12.28
5500,-68.50,66.06,74.31,-0.70,1.99,14.28
5510,-59.88,35.38,78.50,-0.42,1.53,14.78
5520,-51.38,-0.75,81.50,-0.20,0.82,14.15
5530,-51.38,-0.75,81.50,-0.20,0.82,14.15
5540,-47.06,-32.00,81.31,-0.12,0.21,13.38
5550,-35.44,-74.06,79.75,-0.99,-0.03,11.56
5560,-30.75,-91.12,80.87,-1.15,-0.22,11.73
5570,-20.81,-110.12,83.81,-1.74,-0.89,10.69
5580,-20.81,-110.12,83.81,-1.74,-0.89,10.69
5590,-12.31,-128.62,86.94,-1.90,-1.24,10.27
5600,-3.06,-170.19,95.12,-1.59,-3.99,8.58
5610,6.62,-189.75,96.19,-1.41,-5.06,8.04
5620,17.00,-209.31,92.94,-0.99,-6.54,6.99
5630,17.00,-209.31,92.94,-0.99,-6.54,6.99
5640,24.06,-230.94,87.37,-0.08,-8.59,4.38
5650,26.87,-233.06,48.63,1.09,-13.61,-3.04
5660,32.50,-221.19,23.94,1.72,-15.53,-5.79
5670,37.19,-199.12,-8.06,2.29,-17.87,-9.01
5680,37.19,-199.12,-8.06,2.29,-17.87,-9.01
5690,40.19,-173.44,-45.44,2.45,-18.96,-10.53
5700,41.81,-126.56,-129.31,2.45,-19.81,-15.85
5710,38.00,-87.50,-176.44,0.41,-16.89,-19.83
5720,28.69,-44.06,-219.44,-0.98,-13.49,-20.95
5730,28.69,-44.06,-219.44,-0.98,-13.49,-20.95
5740,31.81,14.88,-256.19,-2.81,-8.46,-19.50
5750,51.88,67.37,-274.56,-7.47,6.60,-13.94
5760,68.50,100.06,-270.31,-8.77,11.28,-12.41
5770,57.13,116.87,-248.75,-9.55,14.65,-10.97
5780,20.19,119.06,-205.94,-9.55,14.65,-10.97
5790,-16.87,120.00,-150.25,-8.93,16.00,-10.42
5800,-47.75,134.62,-98.56,-8.19,14.88,-6.83
5810,-68.62,155.19,-55.06,-7.21,13.79,-0.77
5820,-75.37,173.56,-14.88,-6.24,12.08,1.66
5830,-70.19,182.37,25.19,-6.24,12.08,1.66
5840,-66.25,178.37,59.31,-5.39,10.32,3.32
5850,-68.81,170.50,85.37,-2.85,5.35,8.64
5860,-80.19,154.12,107.19,-2.03,3.73,10.05
5870,-96.00,129.94,123.12,-1.46,2.43,11.39
5880,-104.94,102.94,133.44,-1.46,2.43,11.39
5890,-108.31,73.19,139.56,-0.12,0.28,12.52
5900,-108.25,44.13,142.31,0.50,-0.81,14.91
5910,-101.50,18.75,140.06,1.24,-2.04,18.92
5920,-83.06,-10.13,136.87,1.58,-3.01,18.78
5930,-59.00,-55.31,132.69,1.58,-3.01,18.78
5940,-38.38,-105.50,125.00,1.61,-3.77,18.16
5950,-17.62,-150.69,114.81,1.44,-7.26,13.44
5960,13.25,-191.25,104.37,1.05,-8.23,10.38
5970,38.63,-222.06,89.50,0.35,-9.00,8.39
5980,57.31,-236.50,72.62,0.35,-9.00,8.39
5990,73.75,-247.00,62.75,0.07,-13.60,1.40
6000,72.37,-255.19,49.25,0.82,-18.63,-8.03
6010,52.69,-253.12,24.19,0.44,-21.45,-17.55
6020,22.44,-236.81,-12.75,-0.39,-21.05,-19.50
6030,-7.44,-196.87,-64.44,-0.39,-21.05,-19.50
6040,-15.13,-138.81,-119.75,-1.30,-19.61,-20.02
6050,3.37,-83.00,-168.56,-3.89,-7.94,-21.63
6060,29.87,-27.75,-206.37,-4.67,-3.03,-20.54
6070,41.19,24.44,-226.50,-5.20,0.90,-19.41
6080,34.19,64.69,-225.12,-5.20,0.90,-19.41
6090,16.31,100.50,-212.00,-6.60,5.94,-14.34
6100,5.12,129.62,-192.87,-7.37,8.90,-11.70
6110,-1.19,147.00,-168.75,-7.69,10.12,-10.40
6120,-10.13,164.25,-143.56,-7.13,10.77,-7.41
6130,-18.94,180.37,-115.31,-7.13,10.77,-7.41
6140,-28.37,193.69,-87.25,-7.03,10.73,-5.72
6150,-36.50,204.56,-59.56,-6.01,9.69,-0.69
6160,-47.25,209.37,-30.00,-5.37,8.26,0.42
6170,-57.69,209.19,1.12,-4.76,6.79,1.77
6180,-60.50,209.19,29.94,-4.76,6.79,1.77
6190,-60.63,209.06,52.38,-4.10,5.44,3.58
6200,-59.50,201.62,67.31,-2.03,1.80,7.15
6210,-50.75,192.06,73.25,-1.77,1.43,7.55
6220,-40.50,179.87,74.06,-1.56,1.70,8.59
6230,-37.25,163.50,72.25,-1.56,1.70,8.59
6240,-38.44,144.62,71.81,-1.73,1.99,9.48
6250,-40.81,122.12,75.75,-1.45,1.44,11.08
6260,-48.38,92.44,80.69,-0.76,0.50,11.92
6270,-63.81,55.19,83.50,-0.76,0.50,11.92
6280,-79.94,16.75,84.06,-0.37,-0.03,12.04
6290,-82.19,-15.56,83.62,0.01,-0.57,11.25
6300,-70.31,-33.63,80.37,-0.18,-0.27,10.17
6310,-56.31,-43.31,78.12,-0.38,-0.04,10.27
6320,-38.56,-50.94,78.50,-0.55,0.06,10.60
6330,-25.50,-63.69,81.19,-0.71,-0.22,11.02
6340,-21.87,-83.31,84.75,-1.03,-0.39,10.59
6350,-25.62,-105.69,89.44,-0.86,-0.68,10.32
6360,-29.06,-124.81,92.94,-0.85,-0.90,10.59
6370,-18.31,-141.50,97.94,-0.74,-2.80,10.28
6380,-4.81,-158.06,99.62,-0.61,-4.22,9.65
6390,-3.56,-178.56,96.25,-0.26,-5.65,8.61
6400,-7.56,-197.06,86.75,0.07,-7.93,6.05
6410,-9.88,-207.06,70.75,0.00,-8.35,6.10
6420,-6.62,-215.50,52.56,-0.03,-9.07,6.73
6430,10.00,-232.19,35.81,0.30,-10.45,6.08
6440,31.94,-251.87,14.50,0.39,-13.66,-1.44
6450,37.31,-261.25,-13.13,0.42,-14.57,-6.62
6460,26.25,-246.94,-45.06,-0.26,-15.01,-10.25
6470,6.25,-219.00,-73.12,-1.72,-16.06,-15.09
6480,-16.94,-192.00,-97.25,-2.01,-16.93,-16.96
6490,-26.50,-156.87,-126.94,-2.09,-17.49,-18.02
6500,-14.63,-115.25,-164.75,-2.06,-16.75,-19.29
6510,6.25,-70.06,-205.44,-2.87,-11.22,-21.82
6520,28.37,-17.94,-241.25,-3.41,-7.48,-21.87
6530,53.50,37.75,-268.44,-4.76,-2.35,-21.06
6540,86.44,95.50,-275.19,-7.91,7.84,-16.42
6550,107.00,133.69,-251.31,-8.49,10.79,-15.57
6560,85.06,149.87,-209.12,-9.09,13.49,-15.05
6570,19.50,158.62,-157.31,-8.03,14.59,-10.32
6580,-45.94,160.37,-105.37,-7.89,14.42,-8.64
6590,-87.37,168.12,-61.38,-7.40,13.80,-6.21
6600,-101.44,182.62,-23.19,-6.85,12.82,-3.59
6610,-95.44,195.62,9.25,-5.65,11.50,1.24
6620,-84.50,204.56,37.88,-5.08,10.61,3.77
6630,-76.37,203.62,62.75,-4.47,9.70,6.32
6640,-72.81,191.06,85.06,-3.05,7.47,10.15
6650,-82.75,165.44,104.50,-2.37,5.94,11.81
6660,-95.56,131.44,119.00,-1.48,4.54,12.46
6670,-90.25,104.44,127.50,-0.93,3.60,12.72
6680,-79.44,83.00,132.69,-0.14,2.50,14.42
6690,-66.62,63.00,136.81,0.05,1.90,16.52
6700,-43.13,39.25,141.06,0.41,0.91,18.26
6710,-25.94,0.56,143.94,0.45,-0.96,17.58
6720,-18.81,-42.44,144.19,0.01,-1.47,16.75
6730,-8.75,-77.12,144.44,-0.13,-2.44,15.98
6740,-1.94,-111.06,144.19,-0.07,-5.31,12.68
6750,0.56,-139.44,136.56,-0.26,-6.03,11.63
6760,12.50,-156.50,126.75,-0.17,-6.98,10.53
6770,38.50,-169.44,117.44,-0.22,-8.48,9.03
6780,62.63,-180.37,105.75,-0.82,-12.00,5.34
6790,67.56,-196.06,93.12,-0.76,-15.03,3.16
6800,60.31,-220.44,76.87,-0.22,-18.52,-0.97
6810,37.88,-239.87,47.81,0.28,-23.37,-12.68
6820,5.81,-230.25,2.56,0.33,-23.31,-16.70
6830,-13.38,-188.12,-48.81,0.39,-22.07,-18.81
6840,-7.75,-127.94,-94.44,0.82,-20.88,-18.86
6850,15.56,-69.37,-135.12,1.54,-18.47,-16.31
6860,33.31,-29.44,-174.19,1.20,-15.90,-16.07
6870,26.25,-3.00,-210.19,0.51,-12.52,-15.50
6880,3.12,18.75,-236.62,-2.42,-3.69,-12.85
6890,-21.81,37.56,-246.62,-3.59,-0.14,-10.70
6900,-31.94,48.25,-241.06,-4.43,2.20,-9.95
6910,-30.81,56.31,-230.31,-5.01,3.89,-10.17
6920,-28.69,71.62,-222.12,-6.26,8.01,-9.17
6930,-23.44,90.06,-213.62,-7.29,10.77,-8.46
6940,-17.50,104.56,-196.37,-8.22,13.68,-8.07
6950,-18.19,115.50,-164.19,-9.03,17.53,-7.53
6960,-29.19,124.50,-115.62,-8.46,16.72,-7.37
6970,-55.00,132.81,-65.94,-7.68,15.43,-6.71
6980,-81.94,148.62,-24.69,-6.61,12.55,-1.44
6990,-94.69,162.50,11.31,-5.57,10.61,0.93
7000,-98.75,164.37,42.69,-4.76,8.63,3.16
7010,-97.81,158.19,63.38,-3.72,6.44,5.22
7020,-90.69,147.06,75.31,-2.03,3.05,7.62
7030,-80.94,133.44,78.62,-1.55,2.30,8.38
7040,-73.31,116.19,79.06,-1.58,1.88,8.50
7050,-67.25,99.19,80.62,-1.28,1.42,9.29
7060,-58.25,81.37,83.69,-1.27,1.13,9.20
7070,-49.25,61.63,87.87,-0.89,0.51,8.63
7080,-46.19,44.13,90.94,-0.56,-0.09,8.05
7090,-43.69,33.50,90.25,-0.57,-0.10,9.25
7100,-37.94,23.25,89.06,-0.66,-0.01,10.12
7110,-31.69,6.37,90.94,-0.68,-0.14,10.18
7120,-26.62,-13.50,92.69,-1.06,-0.18,9.42
7130,-24.19,-31.06,95.06,-1.21,-0.41,9.14
7140,-20.69,-47.25,99.75,-1.20,-1.02,8.55
7150,-19.62,-62.00,103.69,-1.27,-1.52,8.04
7160,-20.19,-76.44,106.69,-1.53,-2.49,7.69
7170,-20.69,-92.75,109.56,-1.32,-3.04,7.19
7180,-18.94,-106.31,110.69,-0.91,-3.71,7.02
7190,-11.31,-116.69,108.69,-0.12,-4.93,7.41
7200,-0.75,-128.06,104.37,0.25,-5.83,7.62
7210,15.13,-138.87,98.25,0.65,-6.77,7.47
7220,30.87,-152.50,89.62,0.97,-9.76,5.27
7230,39.19,-169.44,78.00,1.33,-11.22,2.80
7240,41.00,-183.44,63.81,1.93,-12.63,-0.13
7250,33.63,-185.31,45.94,2.76,-14.47,-1.84
7260,14.38,-185.87,21.19,3.95,-18.79,-6.83
7270,-2.81,-184.56,-13.00,3.99,-20.17,-10.29
7280,-4.00,-159.56,-59.44,3.68,-20.48,-12.94
7290,7.75,-118.31,-110.19,1.53,-17.79,-14.60
7300,21.44,-81.75,-156.50,0.28,-14.93,-15.49
7310,29.75,-51.50,-190.94,-0.79,-11.61,-16.24
7320,25.94,-25.87,-211.81,-1.70,-8.49,-17.17
7330,15.69,2.00,-223.19,-3.06,-3.29,-17.89
7340,7.31,38.50,-233.75,-4.32,0.69,-16.56
7350,11.31,79.56,-240.37,-6.28,5.87,-14.35
7360,22.12,110.75,-226.81,-8.47,13.52,-11.57
7370,17.87,123.62,-191.69,-8.95,15.67,-11.57
7380,-7.87,133.37,-147.00,-8.87,16.62,-10.34
7390,-37.94,147.56,-100.00,-8.48,16.59,-8.50
7400,-58.25,162.56,-56.56,-7.72,15.67,-3.28
7410,-69.06,173.87,-16.25,-7.27,14.60,-0.60
7420,-70.44,174.25,21.87,-6.48,13.01,1.20
7430,-67.87,171.31,51.69,-5.21,10.31,4.78
7440,-61.13,167.12,74.56,-4.39,8.76,6.54
7450,-50.56,158.25,95.19,-4.02,7.05,7.51
7460,-48.75,144.62,109.81,-2.78,4.16,10.43
7470,-57.88,122.62,120.94,-2.40,2.88,11.59
7480,-71.56,91.06,128.12,-1.93,1.79,12.31
7490,-78.50,60.56,132.62,-1.46,0.89,12.82
7500,-76.06,35.38,133.56,-0.93,-0.04,16.12
7510,-66.94,8.19,134.44,-0.48,-0.89,17.48
7520,-50.00,-28.69,133.37,-0.23,-1.64,17.70
7530,-32.88,-66.94,129.62,-0.06,-3.17,16.09
7540,-21.62,-103.25,124.81,-0.04,-3.91,14.92
7550,-9.31,-132.69,120.62,-0.01,-4.91,14.02
7560,7.12,-155.87,115.94,-0.03,-6.25,12.90
7570,18.75,-178.50,109.69,-0.08,-8.74,9.86
7580,24.50,-197.56,101.62,0.19,-10.82,8.41
7590,32.19,-221.56,91.12,0.67,-13.56,4.01
7600,30.87,-236.56,70.12,1.18,-16.76,-4.89
7610,15.69,-226.44,37.63,1.60,-17.95,-7.29
7620,18.12,-204.87,4.50,2.32,-18.77,-11.18
7630,21.94,-173.75,-33.81,2.23,-18.26,-14.11
7640,22.44,-130.87,-73.25,1.40,-16.33,-14.36
7650,26.50,-101.87,-107.75,0.80,-14.59,-15.83
7660,22.75,-79.62,-137.75,0.00,-12.26,-17.16
7670,14.63,-55.06,-160.00,-1.35,-6.68,-19.19
7680,6.37,-25.12,-171.81,-1.60,-4.13,-19.40
7690,2.69,13.19,-175.37,-1.83,-1.69,-18.30
7700,4.06,55.13,-174.44,-2.75,2.75,-13.34
7710,7.81,87.19,-168.31,-3.18,4.56,-11.33
7720,6.19,105.06,-157.87,-3.72,6.11,-9.79
7730,-4.69,112.37,-142.94,-3.94,7.29,-8.59
7740,-19.81,116.00,-125.56,-4.44,8.75,-6.40
7750,-34.44,120.19,-106.25,-4.46,9.03,-5.24
7760,-44.25,123.00,-84.75,-4.47,8.93,-4.61
7770,-51.94,128.12,-64.62,-4.04,8.45,-1.56
7780,-49.00,136.12,-46.44,-4.25,8.30,-0.41
7790,-42.88,138.62,-29.75,-3.99,8.27,0.72
7800,-43.63,135.75,-12.19,-3.99,7.90,1.79
7810,-45.25,130.87,6.62,-3.27,6.19,3.76
7820,-49.13,124.00,24.62,-2.83,5.25,4.90
7830,-50.38,114.50,39.25,-2.54,3.99,5.68
7840,-52.19,102.06,49.69,-1.46,1.90,6.77
7850,-51.00,88.87,55.06,-1.50,1.55,7.23
7860,-46.94,78.25,57.00,-1.36,1.16,7.69
7870,-40.94,65.00,59.56,-1.20,0.75,7.65
7880,-36.38,52.38,60.94,-1.20,0.92,8.04
7890,-31.37,40.50,63.94,-1.04,0.70,7.97
7900,-25.37,29.00,67.87,-0.96,0.60,7.85
7910,-22.75,19.31,71.37,-1.07,0.75,8.09
7920,-20.12,10.38,76.75,-1.06,0.47,8.62
7930,-16.87,-0.69,82.81,-1.02,0.27,8.78
7940,-13.69,-14.69,89.06,-0.78,-0.94,8.41
7950,-10.75,-28.00,94.19,-0.62,-1.68,8.53
7960,-5.19,-39.50,96.19,-0.59,-2.31,8.77
7970,-0.31,-55.13,96.00,-0.64,-2.83,8.33
7980,1.62,-71.00,94.31,-0.30,-3.55,7.59
7990,1.62,-71.00,94.31,-0.17,-3.73,7.08
8000,11.44,-93.31,86.06,0.06,-3.93,6.84
8010,20.56,-98.94,81.12,0.09,-4.11,7.47
8020,32.69,-105.19,77.62,0.08,-4.77,7.69
8030,40.00,-118.81,76.75,0.47,-5.66,7.10
8040,38.69,-137.69,74.56,0.70,-6.38,6.02
8050,33.69,-155.06,71.50,1.89,-10.06,3.10
8060,28.62,-171.56,64.00,2.84,-12.26,0.31
8070,17.31,-179.00,44.63,3.50,-13.53,-1.56
8080,10.81,-175.94,17.12,4.27,-16.40,-6.88
8090,10.81,-175.94,17.12,4.34,-16.70,-9.57
8100,11.00,-138.06,-58.13,3.77,-15.58,-10.72
8110,15.88,-104.12,-97.62,1.26,-11.84,-11.51
8120,23.31,-76.06,-125.50,0.11,-10.34,-11.95
8130,16.69,-63.81,-141.06,-0.49,-9.51,-13.79
8140,16.69,-63.81,-141.06,-1.29,-7.97,-16.22
8150,-6.19,-60.31,-153.75,-2.91,-2.49,-18.83
8160,-30.62,-12.25,-181.19,-3.91,0.90,-18.93
8170,-25.87,28.87,-185.19,-4.91,4.60,-18.13
8180,-23.25,69.19,-176.44,-6.21,9.77,-14.20
8190,-23.25,69.19,-176.44,-6.72,11.89,-11.65
8200,-16.69,108.19,-158.94,-7.09,13.68,-8.95
8210,-15.25,151.19,-101.87,-6.96,14.24,-6.60
8220,-35.06,148.69,-64.44,-6.30,13.44,-3.37
8230,-59.56,144.50,-29.56,-5.77,12.33,-1.57
8240,-59.56,144.50,-29.56,-5.77,12.33,-1.57
8250,-68.50,141.37,0.13,-4.59,8.89,2.04
8260,-50.56,148.37,46.69,-4.33,7.69,3.56
8270,-48.19,145.56,65.25,-3.79,6.22,5.07
8280,-48.75,137.81,80.50,-3.47,4.74,6.35
8290,-48.75,137.81,80.50,-3.47,4.74,6.35
8300,-56.75,123.75,91.87,-2.56,1.66,9.95
8310,-63.31,87.69,106.87,-2.39,0.79,11.11
8320,-58.06,66.87,111.12,-1.39,-1.02,13.37
8330,-50.44,41.88,112.31,-1.10,-1.56,14.03
8340,-50.44,41.88,112.31,-1.10,-1.56,14.03
8350,-36.81,16.31,110.56,-0.70,-2.14,14.20
8360,-14.69,-32.94,104.62,0.00,-3.57,13.61
8370,-11.56,-56.44,100.87,0.26,-4.05,13.60
8380,-12.75,-78.87,96.37,0.34,-4.27,13.61
8390,-12.75,-78.87,96.37,0.34,-4.27,13.61
8400,-11.13,-102.50,92.06,0.82,-6.78,11.11
8410,7.44,-150.37,81.81,0.84,-7.53,8.99
8420,20.62,-165.75,72.00,0.97,-10.29,5.05
8430,34.44,-177.87,60.81,1.12,-11.88,1.92
8440,34.44,-177.87,60.81,1.12,-11.88,1.92
8450,45.75,-186.00,45.81,1.44,-12.97,-1.66
8460,42.63,-173.06,3.50,2.87,-15.51,-10.62
8470,39.50,-151.94,-24.75,2.68,-14.81,-11.95
8480,34.13,-129.25,-56.06,2.29,-13.92,-12.95
8490,34.13,-129.25,-56.06,2.29,-13.92,-12.95
8500,30.44,-113.12,-82.19,1.37,-11.50,-17.64
8510,24.94,-57.75,-127.19,0.52,-6.42,-18.82
8520,24.69,-19.31,-137.81,0.54,-3.97,-18.19
8530,19.62,16.19,-141.62,0.02,0.49,-14.95
8540,19.62,16.19,-141.62,0.02,0.49,-14.95
8550,7.75,46.50,-138.81,-0.33,2.19,-12.52
8560,-11.00,79.19,-121.06,-1.45,4.80,-7.97
8570,-23.56,88.12,-115.31,-1.83,5.78,-5.86
8580,-32.31,92.69,-104.62,-2.14,6.03,-4.69
8590,-32.31,92.69,-104.62,-2.14,6.03,-4.69
8600,-36.31,91.69,-92.94,-2.70,6.68,-3.99
8610,-39.44,92.00,-79.75,-3.28,7.51,-2.38
8620,-39.63,91.81,-64.37,-3.34,7.43,-1.70
8630,-41.69,92.00,-48.44,-2.58,5.92,-0.80
8640,-41.25,93.75,-31.12,-2.58,5.92,-0.80
8650,-40.75,95.50,-17.31,-2.66,5.74,0.32
8660,-45.69,98.37,-5.12,-1.87,3.51,3.20
8670,-45.63,96.19,8.19,-1.59,2.54,4.20
8680,-46.44,92.44,19.00,-1.50,1.94,4.87
8690,-48.06,85.69,26.87,-1.50,1.94,4.87
8700,-46.44,76.81,32.50,-1.23,1.23,5.15
8710,-45.38,66.56,36.75,-1.05,0.25,6.00
8720,-44.81,59.06,38.56,-0.79,-0.38,5.75
8730,-40.31,50.13,42.06,-0.56,-0.45,6.33
8740,-35.38,42.81,43.38,-0.56,-0.45,6.33
8750,-29.31,38.69,43.06,-0.49,-0.41,6.35
8760,-20.81,33.38,43.50,-0.57,-0.07,7.05
8770,-16.19,27.81,44.38,-0.66,0.12,8.38
8780,-13.75,19.69,46.88,-0.53,-0.34,8.28
8790,-11.00,6.19,51.81,-0.53,-0.34,8.28
8800,-10.63,-12.19,56.13,-0.54,-0.45,7.63
8810,-8.63,-26.06,58.06,-0.54,-1.23,6.99
8820,-0.88,-35.31,61.25,-0.80,-1.41,6.63
8830,7.00,-45.25,62.81,-1.02,-1.27,6.13
8840,10.00,-55.19,62.81,-1.02,-1.27,6.13
8850,14.19,-62.13,64.50,-0.89,-1.62,5.82
8860,18.62,-67.62,67.69,-0.29,-2.41,6.32
8870,21.00,-74.00,69.87,0.33,-3.33,7.37
8880,24.06,-80.56,70.87,0.54,-4.17,8.08
8890,29.94,-89.50,71.12,0.54,-4.17,8.08
8900,36.19,-103.06,69.69,1.00,-5.14,7.84
8910,43.00,-121.44,64.94,1.78,-8.35,3.95
8920,47.81,-135.44,55.63,1.96,-9.08,1.55
8930,52.75,-146.94,43.56,2.21,-9.74,-0.29
8940,57.31,-152.50,29.62,2.21,-9.74,-0.29
8950,57.00,-151.31,16.06,2.78,-11.80,-4.15
8960,53.13,-149.12,1.62,3.60,-13.39,-6.70
8970,50.13,-138.31,-17.62,3.56,-14.68,-9.81
8980,50.69,-126.87,-41.31,2.91,-13.35,-11.99
8990,51.94,-118.62,-72.12,2.91,-13.35,-11.99
9000,53.88,-104.06,-108.19,1.82,-11.04,-13.62
9010,52.88,-83.87,-139.44,-2.37,-0.23,-18.83
9020,38.88,-63.88,-159.50,-3.46,3.50,-19.15
9030,14.94,-36.19,-166.00,-4.39,6.94,-18.37
9040,-3.75,1.37,-158.69,-4.39,6.94,-18.37
9050,-16.75,41.69,-138.87,-4.81,10.79,-13.80
9060,-22.19,77.87,-109.81,-4.69,11.54,-8.32
9070,-29.87,102.12,-81.12,-4.61,11.50,-5.59
9080,-38.75,115.37,-54.69,-4.18,10.55,-2.51
9090,-40.31,118.81,-29.00,-4.18,10.55,-2.51
9100,-41.75,118.81,-5.00,-3.92,9.90,-0.92
9110,-42.81,117.50,16.56,-2.49,5.97,2.19
9120,-43.88,111.25,37.13,-2.35,4.93,3.07
9130,-45.81,104.00,53.56,-2.15,3.90,4.32
9140,-45.63,98.62,64.06,-2.15,3.90,4.32
9150,-46.31,89.00,73.37,-1.45,1.60,6.11
9160,-48.88,75.69,78.62,-1.52,1.05,6.92
9170,-47.13,63.38,81.00,-1.23,0.26,7.97
9180,-41.25,49.25,83.12,-1.03,-0.38,8.48
9190,-36.25,33.31,83.81,-0.33,-1.28,9.78
9200,-30.06,16.75,84.19,-0.13,-1.68,9.94
9210,-25.19,0.81,83.81,0.27,-2.12,10.37
9220,-21.56,-14.44,83.81,1.09,-3.61,11.06
9230,-19.87,-33.19,82.94,1.45,-4.28,11.21
9240,-15.25,-51.25,79.75,1.65,-4.91,11.41
9250,-3.37,-69.44,75.00,1.80,-5.75,10.96
9260,10.38,-89.19,68.56,1.75,-7.71,8.70
9270,22.94,-105.69,59.88,1.79,-8.79,7.30
9280,37.94,-118.94,48.88,1.85,-9.94,5.24
9290,49.75,-128.50,34.88,2.07,-11.61,0.34
9300,52.50,-132.56,18.06,2.35,-12.23,-2.08
9310,50.06,-129.31,0.00,2.53,-12.73,-3.96
9320,46.38,-118.94,-20.81,2.74,-12.91,-5.40
9330,44.00,-106.87,-45.31,2.43,-11.60,-8.29
9340,40.63,-90.69,-72.31,1.91,-9.96,-8.96
9350,42.38,-72.81,-96.25,1.22,-8.23,-9.86
9360,45.13,-56.81,-113.50,-0.15,-4.38,-12.08
9370,39.44,-41.63,-123.87,-0.60,-2.34,-13.04
9380,31.31,-23.12,-127.00,-0.87,-0.64,-13.31
9390,24.06,-0.06,-125.12,-1.09,2.04,-11.91
9400,20.81,23.31,-121.94,-1.45,3.43,-10.95
9410,23.00,44.50,-116.87,-1.81,4.61,-9.98
9420,21.75,60.56,-107.06,-2.14,5.48,-9.00
9430,9.06,69.31,-92.87,-2.32,6.31,-7.09
9440,-9.38,74.81,-75.69,-2.18,5.81,-5.75
9450,-26.75,77.81,-58.31,-1.85,5.08,-4.68
9460,-38.75,79.37,-45.50,-1.81,4.78,-3.24
9470,-42.38,84.06,-35.94,-1.69,4.58,-2.17
9480,-39.19,89.62,-26.37,-1.52,4.15,-1.20
9490,-35.81,92.12,-17.25,-1.35,3.72,-0.25
9500,-34.81,92.37,-9.00,-0.99,2.70,1.41
9510,-34.75,90.44,-1.69,-1.06,2.48,2.09
9520,-34.81,86.75,4.50,-0.91,2.13,2.89
9530,-31.62,82.69,11.31,-0.41,1.16,3.81
9540,-32.81,74.44,17.00,-0.24,0.69,4.38
9550,-33.88,66.00,20.87,-0.01,0.25,4.38
9560,-30.25,57.38,22.75,0.01,-0.05,4.21
9570,-28.69,51.13,22.44,0.18,-0.36,4.55
9580,-22.25,46.19,22.19,0.25,-0.53,4.13
9590,-18.06,41.06,21.50,0.12,-0.44,4.14
9600,-15.31,38.94,21.06,-0.07,-0.24,4.71
9610,-11.75,35.56,22.06,-0.10,-0.18,4.64
9620,-10.81,29.19,23.62,-0.15,0.00,4.53
9630,-10.94,23.06,24.87,-0.72,1.11,4.67
9640,-7.94,16.75,29.31,-0.63,0.83,3.99
9650,-6.12,9.00,36.50,-0.68,0.85,3.44
9660,-7.94,4.81,41.50,-0.89,1.10,3.75
9670,-4.75,2.25,47.31,-0.52,0.40,3.70
9680,0.44,-1.50,52.19,-0.51,0.42,3.80
9690,4.00,-4.12,54.25,-0.64,0.61,4.20
9700,8.63,-8.31,57.50,-0.76,0.46,4.45
9710,14.06,-14.75,62.31,-0.77,0.34,4.41
9720,14.56,-22.25,67.19,-0.82,0.33,4.32
9730,11.75,-30.37,72.25,-0.63,0.13,4.21
9740,11.25,-36.00,77.87,0.14,-1.01,4.56
9750,9.88,-40.25,80.94,0.55,-1.41,5.19
9760,8.13,-45.44,81.87,0.85,-1.97,6.12
9770,10.13,-53.19,81.56,1.34,-3.42,6.95
9780,14.44,-65.25,78.94,1.11,-4.12,7.13
9790,19.75,-77.37,72.69,1.10,-4.74,7.27
9800,24.06,-94.75,66.44,1.40,-5.74,6.09
9810,32.06,-110.94,58.44,1.77,-7.62,3.04
9820,42.81,-120.37,48.25,2.32,-8.89,0.63
9830,47.94,-129.75,37.56,2.82,-10.39,-1.75
9840,50.94,-127.19,21.37,3.63,-14.06,-4.87
9850,56.31,-119.69,-0.44,4.06,-15.62,-6.95
9860,59.56,-111.69,-32.63,3.74,-15.50,-8.94
9870,64.62,-99.12,-72.87,1.80,-12.58,-14.30
9880,65.25,-85.62,-107.87,0.71,-9.41,-16.57
9890,53.31,-64.37,-135.62,-0.36,-5.19,-17.65
9900,39.06,-36.75,-149.06,-1.42,-1.51,-18.40
9910,26.81,-4.81,-144.94,-1.92,3.13,-17.95
9920,11.63,32.25,-136.69,-2.99,5.93,-15.70
9930,0.37,70.50,-124.19,-3.89,7.93,-13.14
9940,-10.50,96.31,-100.06,-3.75,8.34,-10.02
9950,-25.31,110.56,-74.69,-4.09,8.95,-8.04
9960,-47.31,123.19,-52.75,-3.93,8.78,-5.43
9970,-63.50,129.44,-28.06,-3.52,7.94,-3.87
9980,-71.75,130.25,-6.50,-2.78,6.44,-1.14
9990,-76.37,133.25,9.81,-2.56,5.83,0.52
10000,-79.56,133.50,25.12,-2.02,4.63,2.18
10010,-82.37,126.56,37.81,-1.22,2.69,3.89
10020,-83.50,117.81,44.81,-1.09,2.18,5.33
10030,-83.25,110.19,48.81,-0.90,1.66,6.26
10040,-77.75,98.75,53.50,-0.64,1.21,6.71
10050,-74.69,86.06,56.50,-0.46,1.13,8.18
10060,-78.50,72.31,60.13,-0.62,1.08,9.02
10070,-78.62,56.06,65.69,-0.17,0.48,9.76
10080,-74.44,38.31,71.75,0.28,-0.87,11.25
10090,-70.19,22.25,72.12,0.44,-1.33,12.43
10100,-61.06,3.25,70.37,0.56,-1.92,12.67
10110,-47.19,-20.50,66.94,0.04,-2.61,11.93
10120,-38.00,-44.13,61.38,-0.19,-2.57,11.15
10130,-28.12,-66.00,56.63,-0.21,-2.95,10.11
10140,-16.31,-84.37,53.69,-0.72,-3.12,9.29
10150,-8.50,-99.56,51.75,-0.99,-3.96,6.65
10160,-1.19,-112.81,51.00,-0.84,-4.89,5.03
10170,9.06,-118.00,49.75,-0.65,-5.67,3.99
10180,15.19,-117.94,45.56,-0.19,-7.87,3.33
10190,23.75,-119.06,40.31,0.27,-9.07,2.29
10200,32.19,-123.12,30.69,0.83,-10.07,1.07
10210,39.50,-126.19,15.94,1.38,-10.83,-0.52
10220,44.50,-127.50,-3.81,1.38,-10.53,-3.89
10230,51.38,-124.31,-24.25,1.44,-10.26,-6.17
10240,55.06,-117.81,-42.56,1.28,-9.93,-7.73
10250,50.00,-107.62,-59.19,0.81,-8.81,-11.77
10260,42.63,-96.69,-72.69,1.13,-8.10,-13.94
10270,30.06,-75.75,-84.62,1.35,-6.98,-14.30
10280,20.81,-42.63,-97.50,1.30,-5.52,-13.33
10290,21.19,-11.88,-108.19,1.05,-2.40,-11.65
10300,21.06,9.81,-115.37,0.62,-0.82,-10.75
10310,19.81,26.69,-118.25,0.35,0.20,-10.37
10320,17.75,39.81,-117.00,-0.43,2.63,-9.67
10330,9.13,53.63,-113.06,-0.82,3.53,-8.35
10340,-5.31,65.00,-103.62,-1.11,4.11,-7.39
10350,-21.62,70.06,-91.81,-1.48,4.83,-6.37
10360,-32.00,77.37,-80.12,-1.61,4.92,-5.30
10370,-36.88,87.56,-69.25,-1.82,5.13,-4.04
10380,-38.88,95.75,-59.25,-2.06,5.41,-3.03
10390,-39.50,100.50,-47.19,-2.15,5.65,-1.06
10400,-43.31,103.19,-33.75,-2.10,5.52,0.24
10410,-47.38,102.81,-19.50,-1.82,5.03,1.29
10420,-50.94,97.31,-5.62,-1.20,3.85,2.82
10430,-53.38,91.87,5.69,-1.12,3.13,3.43
10440,-54.06,84.44,15.44,-0.60,2.16,4.00
10450,-54.69,76.50,22.50,-0.40,1.36,4.29
10460,-50.69,69.87,25.37,0.05,0.53,4.84
10470,-43.69,64.75,25.56,0.13,0.46,5.25
10480,-33.38,60.06,25.31,0.24,0.19,5.56
10490,-23.44,53.00,25.50,0.16,0.58,5.65
10500,-19.12,45.63,24.44,-0.09,1.04,6.07
10510,-14.44,38.44,27.25,-0.02,0.76,6.08
10520,-9.44,28.87,33.69,0.11,0.26,5.64
10530,-10.13,19.75,37.94,0.00,-0.32,5.92
10540,-9.13,12.25,40.06,-0.02,-0.72,5.58
10550,-5.31,4.12,41.25,-0.22,-0.93,5.18
10560,-0.31,-1.00,40.38,-0.87,-0.62,5.25
10570,3.87,-7.69,40.81,-0.84,-0.76,4.79
10580,7.62,-17.69,43.25,-1.02,-0.62,3.97
10590,11.25,-24.06,45.75,-1.04,-0.51,3.59
10600,10.13,-28.00,49.75,-0.81,-0.59,3.58
10610,9.50,-30.37,54.06,-0.53,-0.77,3.82
10620,11.25,-30.56,57.69,-0.16,-1.05,4.49
10630,9.50,-33.56,59.19,0.26,-1.29,5.83
10640,8.69,-39.81,59.25,0.22,-1.49,6.45
10650,9.25,-48.31,58.06,0.19,-1.68,7.22
10660,12.63,-60.13,56.25,-0.32,-2.28,7.76
10670,21.25,-74.69,53.88,-0.38,-2.58,7.18
10680,28.87,-92.19,51.94,-0.30,-3.10,6.10
10690,31.87,-108.69,49.88,0.00,-3.69,5.36
10700,35.31,-119.00,46.38,0.72,-5.14,4.48
10710,44.63,-127.44,41.88,1.42,-6.89,3.62
10720,57.06,-136.87,35.50,1.90,-8.40,1.77
10730,66.62,-145.25,21.62,1.81,-10.06,-1.83
10740,70.19,-150.50,4.87,2.04,-11.05,-4.86
10750,71.44,-153.06,-11.94,2.04,-11.97,-7.36
10760,64.56,-146.19,-33.13,2.25,-12.47,-9.51
10770,56.44,-135.12,-55.63,1.63,-11.98,-14.46
10780,44.94,-114.25,-78.81,1.51,-10.99,-16.21
10790,26.37,-90.12,-97.69,1.47,-9.74,-17.51
10800,11.56,-58.63,-114.94,0.71,-5.83,-17.19
10810,0.69,-24.00,-130.25,0.19,-3.55,-16.06
10820,-2.50,8.81,-141.62,-0.39,-1.26,-15.19
10830,5.87,39.50,-148.44,-1.96,3.39,-13.03
10840,13.38,67.12,-148.50,-2.69,5.28,-11.97
10850,8.75,87.31,-140.19,-3.49,7.24,-10.95
10860,-5.25,103.25,-125.06,-4.14,8.77,-9.54
10870,-21.87,116.50,-101.75,-4.36,9.87,-7.40
10880,-40.06,127.62,-75.94,-4.68,10.43,-5.46
10890,-56.44,141.50,-50.13,-4.47,9.71,-3.06
10900,-56.44,141.50,-50.13,-3.58,8.16,0.57
10910,-71.56,150.37,1.31,-3.29,7.21,2.38
10920,-73.25,148.00,21.06,-2.76,6.05,3.57
10930,-75.44,139.06,37.31,-2.64,5.22,4.67
10940,-74.87,131.31,48.81,-2.01,4.03,7.32
10950,-68.12,123.31,58.75,-1.95,3.62,8.39
10960,-63.75,111.94,66.81,-2.04,3.52,9.70
10970,-65.37,97.06,75.56,-1.84,3.20,12.96
10980,-65.37,80.12,84.50,-1.51,2.47,14.85
10990,-58.00,57.06,95.00,-1.01,1.17,15.83
11000,-58.00,57.06,95.00,-0.89,0.43,16.56
11010,-38.25,-6.75,104.19,-0.35,-1.87,16.55
11020,-31.37,-44.06,106.62,-0.01,-3.45,15.83
11030,-18.12,-76.31,104.50,-0.01,-4.74,15.18
11040,3.25,-102.50,98.19,0.35,-8.46,11.96
11050,3.25,-102.50,98.19,0.59,-10.31,9.99
11060,26.25,-124.75,91.00,0.82,-12.13,8.06
11070,52.38,-155.25,62.13,1.23,-14.16,5.27
11080,58.94,-165.81,41.25,1.61,-16.99,-1.96
11090,56.38,-168.00,11.06,1.57,-17.05,-4.75
11100,56.38,-168.00,11.06,1.89,-16.94,-7.19
11110,58.94,-154.69,-21.87,1.85,-14.28,-12.16
11120,60.44,-116.87,-83.87,1.55,-11.78,-13.53
11130,57.00,-90.69,-111.31,1.23,-8.69,-14.88
11140,53.56,-64.25,-131.37,0.16,-2.46,-15.70
11150,53.56,-64.25,-131.37,-0.33,0.12,-15.28
11160,48.25,-35.38,-141.50,-0.64,2.37,-14.81
11170,35.19,16.19,-138.81,-1.31,4.77,-14.04
11180,29.31,37.81,-130.19,-2.16,7.68,-12.39
11190,25.19,55.31,-114.06,-2.52,8.28,-11.90
11200,25.19,55.31,-114.06,-2.52,8.28,-11.90
11210,13.75,69.31,-94.12,-2.91,8.15,-8.94
11220,-30.62,90.12,-49.19,-2.91,7.47,-7.36
11230,-52.94,100.00,-28.12,-2.67,6.75,-5.46
11240,-63.06,110.50,-9.13,-2.24,5.37,-3.43
11250,-63.06,110.50,-9.13,-2.24,5.37,-3.43
11260,-63.00,117.56,15.38,-1.35,3.07,-0.43
11270,-60.00,115.50,20.44,-0.52,1.20,1.71
