timestamp,gyrox,gyroy,gyroz,accx,accy,accz
10,21.06,-99.19,62.13,-1.57,0.82,-0.65
20,4.06,-84.75,67,-1.36,1.41,-0.34
30,7.5,-76.75,67.06,-1.28,2.57,0.17
40,28.37,-79,59.75,-1.06,3.28,0.66
50,57.44,-83.69,46.56,-0.99,3.93,0.77
60,83.5,-80.94,22.5,-1.56,4.45,-0.05
70,92.56,-72.19,-9.13,-2.07,4.07,-0.97
80,73.62,-56,-42.56,-2.58,3.42,-1.9
90,28.81,-36.13,-69,-3.37,2.67,-2.43
100,-20.31,-14.94,-86.62,-4.19,1.26,-2.98
110,-45.38,-2.87,-95.44,-4.31,0.76,-3.16
120,-37.44,-9.88,-94.56,-4.37,0.64,-3.38
130,-7.69,-32.94,-84.69,-4.33,0.84,-3.62
140,23.5,-61.94,-76.87,-4.5,0.83,-3.94
150,42,-92.06,-70.19,-4.37,1.34,-3.66
160,46,-118.31,-61.69,-3.95,1.98,-3.28
170,42.5,-138.19,-58.31,-3.59,2.4,-2.91
180,32.06,-149.69,-63.44,-2.89,2.13,-1.96
190,17,-154.44,-71.75,-2.85,1.74,-1.61
200,4.94,-155.25,-79,-2.76,1.15,-1.34
210,0.88,-154.12,-78.81,-1.8,0.07,-0.92
220,4.44,-155.06,-73.06,-1.13,-0.36,-1.08
230,7.5,-157.87,-68.12,-0.53,-0.77,-1.19
240,3.06,-163,-63.31,0.05,-1.03,-1.17
250,-9.44,-167.56,-57.94,1,-1.99,-0.5
260,-23.5,-164.69,-57.5,1.28,-2.87,-0.58
270,-31.31,-154.37,-58.94,1.32,-4.06,-0.98
280,-32.88,-143.81,-56.56,1.9,-5.25,-1.64
290,-31,-141.69,-41.13,1.64,-6.91,-1.14
300,-22,-153,-2,1.93,-6.65,-0.65
310,-4.37,-165.94,48.31,2.66,-5.87,-0.23
320,14.94,-172.37,94.87,3.77,-3.52,0.67
330,35.88,-165.81,147.37,4.07,-2.38,1.16
340,35.88,-165.81,147.37,4.73,-0.9,0.87
350,42,-151.5,158.87,5.57,0.31,0.19
360,36.06,-140.25,156.31,6.42,1.41,-0.06
370,15.81,-134.94,136.69,6.28,0.97,0.25
380,15.81,-134.94,136.69,6.01,0.36,1.5
390,-21.25,-84,80.44,5.92,-0.38,2.11
400,-27.62,-55.63,77.87,5.67,-1.35,2.54
410,-29.81,-25.31,84.31,5.31,-1.13,2.27
420,-24.94,2.81,92.87,5.32,-0.21,1.38
430,-24.94,2.81,92.87,5.62,0.73,0.12
440,-20,21.81,90.12,6.21,1.3,-2.18
450,-31.56,23.94,59.56,6.36,0.86,-2.5
460,-37.13,7.81,46.81,6.45,-0.1,-1.99
470,-34.5,-5.5,46.31,6.42,-1.94,0.19
480,-34.5,-5.5,46.31,6.54,-2.31,1.51
490,-27.37,-2.19,56.06,7.23,-2.22,2.21
500,-4.69,44.06,78.75,7.96,-1.7,2.43
510,2.87,70.19,74,9.52,-0.48,1.88
520,9.31,88.56,57.75,9.67,-0.61,1.3
530,9.31,88.56,57.75,9.67,-0.61,1.3
540,12.75,97.37,39.94,9.22,-2.19,1.11
550,23.75,109.62,33,8.12,-4.28,2.25
560,35.63,124.37,52.5,7.89,-4.69,2.52
570,44.63,144.31,80.37,7.76,-4.63,2.45
580,44.63,144.31,80.37,7.76,-4.63,2.45
590,46.69,166.31,111.31,6.82,-1.68,0.5
600,44.69,206,167.25,6.86,-0.11,0.06
610,42.75,229.5,177.19,6.79,1.25,0.13
620,48.25,252.87,168.87,7.05,3.38,0.82
630,48.25,252.87,168.87,7.05,3.38,0.82
640,70.12,276.56,144.5,6.21,3.56,-0.57
650,48,282.75,80.12,4.71,3.12,-4.19
660,34.63,251.87,50.88,1.65,-0.44,-6.16
670,36.81,213.5,54.06,0.03,-1.86,-6.54
680,36.81,213.5,54.06,0.03,-1.86,-6.54
690,28.5,178.31,88.31,-1.13,-2.17,-6.47
700,-14.69,148.12,161,-0.91,2.9,-4.97
710,-26.75,140.94,165.25,-1.51,4.18,-4.18
720,-19.69,139.31,153.37,-0.54,5.58,-2.85
730,-19.69,139.31,153.37,-0.54,5.58,-2.85
740,14.06,139.19,129.37,-1.61,7.67,-2.08
750,85.56,153.69,45.88,-2.75,8.09,-4.17
760,86.62,154.94,7.25,-3.66,7.21,-6.04
770,86.62,154.94,7.25,-5.24,5.06,-8.93
780,60.38,145.69,-15,-5.24,5.06,-8.93
790,22,123.94,-18.37,-6.08,4.38,-9.11
800,-13.75,94.94,-8.56,-5.91,4.6,-7.79
810,-36.44,62.19,-1.69,-5.48,5.17,-4.44
820,-35.19,29.69,-3.56,-5.04,5.76,-3.18
830,-14.69,2.31,-10,-5.04,5.76,-3.18
840,2.37,-14.69,-23.87,-4.63,6.08,-2.08
850,9,-15.56,-42.75,-4.49,5.52,0.05
860,17.75,-5,-60.06,-4.54,4.8,-0.51
870,21.37,7.81,-75.87,-4.73,3.79,-1.38
880,14,16.12,-86.75,-4.73,3.79,-1.38
890,6.81,14,-87.87,-5.45,2.08,-2.5
900,4.56,3.69,-77.62,-5.37,3.55,-3.12
910,5.44,-9.88,-64.31,-4.77,4.83,-3.71
920,10.94,-25.87,-63.25,-4.47,5.02,-3.65
930,12.88,-46.31,-78.25,-4.47,5.02,-3.65
940,15.81,-68.5,-95,-4.34,4.55,-2.85
950,22.87,-87,-104.75,-3.69,4.24,-1.52
960,24.75,-95.5,-110.56,-3.19,3.65,-1.14
970,18.5,-95.25,-115.44,-2.85,3.44,-1.35
980,8.63,-92.12,-119.12,-2.85,3.44,-1.35
990,-0.19,-92.19,-122.19,-2.37,3.33,-1.55
1000,-6.25,-94.5,-127.37,-1.5,2.7,-1.3
1010,-4.75,-95.81,-135.75,-0.98,2.4,-1.68
1020,0.81,-98.19,-145.69,-0.63,1.58,-2.62
1030,0.37,-101.37,-158.69,-0.63,1.58,-2.62
1040,-10.63,-106.37,-169.19,-0.38,-1.05,-3.16
1050,-20.25,-110.81,-171.87,0.39,-4.35,-5.37
1060,-39.63,-115.44,-168.81,0.08,-5.71,-5.4
1070,-75.56,-118.81,-150.75,1.45,-6.61,-4.68
1080,-97.25,-124.12,-114.5,1.45,-6.61,-4.68
1090,-92.19,-139.25,-74.62,2.52,-5.9,-3.67
1100,-66.5,-160,-43.81,5.97,-2.74,-0.92
1110,-28.56,-177.19,-37.44,7.97,-1.75,1.31
1120,6.44,-187.44,-53.69,8.44,-2.46,2.25
1130,34.31,-197.56,-82.06,8.44,-2.46,2.25
1140,53.06,-180.06,-103.87,8.06,-3.71,3.31
1150,62,-156.75,-107.06,8.14,-5.56,2.96
1160,63.94,-142.06,-95.5,8.18,-5.43,2.96
1170,66.5,-123.37,-74.12,8.04,-5.05,2.85
1180,71.19,-102.25,-46.81,8.04,-5.05,2.85
1190,72.37,-80.62,-17.31,8.73,-2.46,2.87
1200,70.69,-58.75,2.5,9.67,-0.53,2.23
1210,61.56,-37.38,2.81,9.59,-0.78,1.91
1220,42.94,-15.75,-8.13,8.52,-2.15,2.69
1230,19.75,3.94,-14.06,8.52,-2.15,2.69
1240,9.81,23.31,-5.25,7.94,-2.11,2.92
1250,18.62,43.13,13.75,6.96,0.12,1.16
1260,36.38,62.81,34.13,6.96,0.12,1.16
1270,54.5,79.69,50.75,6.8,0.97,0.56
1280,66.75,89.44,60.81,6.38,1.37,-0.08
1290,64.37,95.94,66.69,5.78,1.74,-0.36
1300,50.13,108.31,70.62,5.57,2.22,-1.26
1310,37.25,104.5,72.31,5.26,2.3,-2.53
1320,16.25,83.19,67.31,4.62,1.88,-2.14
1330,-1.25,67.31,62.13,3.91,1.56,-0.78
1340,5.87,67.25,54.44,1.98,0.78,0.3
1350,24.75,90.37,46.06,0.89,0.3,-0.44
1360,33.56,126,39.69,-0.42,0.2,-0.97
1370,42.94,150.5,35.81,-0.84,0.44,-3.05
1380,53.56,136.94,29.87,-2.06,1.1,-5.93
1390,53.69,108.12,20.25,-3.12,0.71,-5.85
1400,37.94,79.81,14.69,-3.7,0.17,-4.82
1410,18.31,62.19,14.44,-5.14,-1.4,-3.41
1420,4,52.88,20.37,-5.98,-1.71,-2.18
1430,-5.56,52.44,31.12,-6.04,-1.75,-1.12
1440,5.12,57.94,42.06,-6.74,-1.52,-0.65
1450,25.62,63.13,54.56,-6.11,1.67,-0.99
1460,47.13,61.5,55.13,-6.31,2.45,-1.52
1470,53.25,54,37.5,-6.5,2.29,-1.73
1480,45.56,42.44,18.25,-7.25,1.46,-1.57
1490,36.81,27.69,9.31,-9.31,-1.18,-1.15
1500,23.44,13.38,20.12,-8.13,-1.63,-1.19
1510,6.25,3.12,48.44,-8.12,-1.51,-0.58
1520,-2.44,-9.81,77.06,-7.84,-0.23,0.92
1530,-5.19,-11.5,102.75,-7.28,1.08,0.99
1540,-2,-7.75,118.25,-6.76,2.23,0.69
1550,5.12,-6.69,118.25,-6.26,2.89,0.09
1560,7.06,-8.81,105.62,-6.11,1.97,-0.61
1570,3,-14.38,90.44,-6.45,1.22,-0.69
1580,4.94,-20.06,87.19,-6.36,0.74,-1.38
1590,4.94,-27,92.62,-6.26,0.34,-1.88
1600,-6.19,-33.44,103,-5.23,-0.13,-2.12
1610,-25.75,-37.31,113.69,-5.2,-1.3,-1.7
1620,-51.63,-33.81,120.62,-5.46,-2.67,-1.14
1630,-71.19,-20.25,144.25,-5.44,-2.96,-0.82
1640,-68.87,-6.5,177.37,-3.59,-0.78,-1.77
1650,-61.19,0.88,200.31,-2.17,0.9,-2.27
1660,-49.19,1.37,214.31,-1.52,2.9,-3.44
1670,-37.94,-11.5,210.81,0.94,5.38,-4.96
1680,-45.38,-40.13,192.56,2.15,6,-3.99
1690,-54.44,-71.37,155.31,2.45,5.85,-2.76
1700,-49.38,-92.12,104.19,2.44,4.91,-2.04
1710,-44.06,-96.56,56.69,3.17,1.79,-1.27
1720,-46.25,-96.81,22.75,3.07,-0.19,-0.44
1730,-48.25,-98.62,7.25,3,-1.77,0.12
1740,-47.5,-95.06,13,2.95,-2.52,0.88
1750,-37.88,-80.06,31.75,4.11,-1.25,0.42
1760,-20.69,-67.19,45.75,4.78,-0.51,-0.58
1770,-8.63,-63.94,45.13,5.06,-0.26,-1.27
1780,-7.75,-67.81,36.56,5.85,-0.24,-1.02
1790,-5.94,-77,27.25,6.15,-0.59,-0.63
1800,-1.37,-87.69,17.94,6.38,-1.11,0.16
1810,2.81,-94.12,11.75,6.51,-1.35,0.87
1820,8.81,-93.31,10.56,6.99,-1.35,1.39
1830,15.69,-87.37,10.31,7.19,-1.35,1.2
1840,12.38,-76.19,9.81,7.35,-1.33,1.51
1850,0.06,-60.63,8.69,7.51,-1.2,2.01
1860,-2.37,-44.19,6.31,8.03,-0.83,2.01
1870,5.87,-30.25,1.19,8.07,-1.01,1.87
1880,9.25,-21.62,-6.75,7.9,-1.31,2.05
1890,7.94,-12.94,-11.13,7.83,-1.07,2.33
1900,10.25,0.37,-12.06,8.23,-0.16,1.82
1910,8.88,15.13,-18.19,8.27,-0.09,1.54
1920,-1.94,34.19,-30.25,8.33,-0.48,1.35
1930,-10.88,49.44,-42.94,7.68,-2.01,0.91
1940,-12.13,61,-50.56,7.39,-2.63,0.86
1950,-9.56,68.37,-50,6.8,-2.87,1.1
1960,-2.56,74.06,-41.13,6.42,-2.37,1.23
1970,7.87,83.19,-26.94,6.15,0.69,0.45
1980,13.81,95.44,-16.81,6.23,2.23,0.34
1990,13.63,108.62,-20.12,6.31,3.28,0.3
2000,10.31,119.19,-40.38,6.02,3.43,0.07
2010,0.75,128.62,-74.31,3.96,0.46,0.58
2020,-2.44,144.12,-102.69,2.47,-1,0.45
2030,3,170.12,-111.31,1.29,-1.21,-0.24
2040,12.38,205.81,-100.31,0.67,0.86,-5
2050,25.31,220.87,-88.87,-0.02,1.2,-7.21
2060,29.25,195.44,-92.31,-0.9,1.1,-7.95
2070,17.25,156.44,-101.94,-1.75,0.54,-6.77
2080,5.75,116.5,-112.25,-4.03,-1.26,-3
2090,-4.25,97.44,-110.12,-3.81,-0.29,-1.87
2100,0.5,105.5,-99.81,-3.48,-0.3,-2.76
2110,21.06,113.75,-102.31,-4.17,-0.68,-3.78
2120,18.37,116.19,-101.25,-5.27,-0.97,-5.15
2130,2.19,115.06,-95,-5.43,-1.05,-5.88
2140,-5.5,102.37,-86.31,-6.22,-1.38,-6.08
2150,-2.94,72.81,-75.69,-6.86,-1.72,-5.4
2160,-3.69,42.38,-59.63,-7.24,-1.42,-2.63
2170,-7.25,21.56,-40.88,-7.04,-0.05,-1.14
2180,2.12,11.13,-17.56,-6.32,2.19,-0.73
2190,20.37,8.25,-10.44,-5.27,6.11,-0.47
2200,20.37,8.25,-10.44,-5.19,6.34,-0.9
2210,18.87,15.63,-81.69,-5.53,4.86,-2
2220,11.38,2.5,-102.75,-6.2,2.21,-2.9
2230,3.06,-15.69,-92.19,-7.52,-1.2,-2.23
2240,4.81,-30.75,-61,-7.51,-0.66,-1.99
2250,8.69,-41.81,-31.87,-6.62,1.15,-2.31
2260,8.69,-53.06,-23.56,-5.62,3.56,-2.69
2270,16.31,-64.87,-38.19,-3.75,7.03,-2.24
2280,33.19,-78.44,-69.12,-2.79,7.91,-2.61
2290,38.38,-94.37,-112.12,-2.09,7.61,-2.76
2300,29.06,-103.87,-147.87,-2.05,5.55,-1.94
2310,18.06,-107.25,-159.31,-2.28,0.86,-0.93
2320,7.87,-109.5,-150.44,-2.37,-0.31,-0.51
2330,1.69,-107.62,-130,-1.97,-0.56,0.12
2340,8.88,-103.56,-113.19,-0.5,1.14,1.29
2350,28.19,-97.75,-111.31,0.41,2.51,1.12
2360,55.63,-94.19,-128.44,1.24,3.53,0.76
2370,89.75,-99.25,-155.94,1.93,3.95,0.08
2380,111.12,-117.5,-184.94,3.47,1.88,-1.21
2390,93.31,-136.44,-211,3.59,-0.55,-1.45
2400,40.81,-144.75,-228.06,3.89,-3.3,-1.4
2410,-12.69,-130.69,-210.37,1.77,-6.49,-0.25
2420,-48.13,-109.5,-147.94,0.91,-9.41,1.31
2430,-53.75,-94.44,-71.06,1.14,-8.59,1.66
2440,-29,-90.06,-6.69,2.19,-6.33,1.52
2450,-1.25,-89.87,24.25,4.07,-1.19,0.42
2460,7.25,-88.87,23.19,4.46,-0.07,0.13
2470,3.31,-84.62,5.62,4.53,0.1,0.2
2480,2.75,-80.31,-8.94,4.46,-0.55,0.22
2490,2.69,-76.56,-9.75,4.38,-1.32,0.25
2500,-3.94,-70.62,-3.62,4.55,-1.33,0.02
2510,-13.75,-64.69,3.56,4.76,-1.09,0.14
2520,-13.5,-61.5,8.44,5.17,-0.56,0.4
2530,-4.94,-61.94,5.94,5.72,0.32,0.38
2540,3.06,-61.88,-2.19,5.94,0.44,0.8
2550,13.81,-54.63,-12.44,6.01,0.49,1.1
2560,21.12,-39.69,-24.19,5.99,0.25,1.09
2570,22.5,-21.87,-31.81,5.51,-0.87,0.58
2580,19.5,-5.19,-29.12,5.26,-1.32,-0.2
2590,10.19,5.94,-15.69,4.96,-1.38,-0.92
2600,-4.75,12.94,1.75,4.98,-0.74,-1.86
2610,-19.75,14.69,16.81,4.8,-0.37,-1.83
2620,-28.12,14,26,5.06,0.02,-1.52
2630,-21,11.63,29.12,4.95,0.58,-0.78
2640,1,12.38,23.62,5.18,1.77,0.35
2650,19.56,23.94,10.63,5.08,2.08,-0.02
2660,19.5,43.5,-9.31,4.67,1.81,-0.52
2670,12.13,59.63,-27.12,4.03,0.87,-1.11
2680,4.87,68.12,-30.94,2.52,-0.84,-1.96
2690,-4.12,75.44,-24.81,1.77,-1.15,-1.82
2700,-10.75,85.56,-13.31,0.27,-1.36,-1.88
2710,-9.06,91.19,-3.62,1.19,0,-2.27
2720,10.75,78.62,-12.19,1.23,0.23,-2.12
2730,31.31,66.81,-27.5,0.56,0.4,-1.89
2740,32.13,68.19,-42.06,-0.15,0.23,-1.55
2750,26.5,77.94,-52.81,-1.19,-0.53,-1.72
2760,29.44,83.06,-58.63,-2.24,-1,-2.34
2770,26.75,85.12,-54.5,-3.1,-1.1,-3.09
2780,12.63,81.25,-44.81,-3.32,-0.68,-3.42
2790,12.63,81.25,-44.81,-2.77,0.26,-1.91
2800,7.25,66.75,-42.13,-2.97,0.14,-0.91
2810,25.56,34.81,-58.13,-2.87,0.11,0.19
2820,30.62,29.87,-63.94,-2.37,0.41,1.17
2830,32.81,37.81,-76.81,-2.58,-1.13,2.71
2840,32.81,37.81,-76.81,-2.99,-2.94,2.91
2850,26.19,57.5,-88,-3.96,-4.66,2.8
2860,12.69,86,-59.44,-6.38,-5.92,1.96
2870,14.25,91,-20.5,-6.53,-5.74,0.52
2880,10.63,80.37,21.62,-6.63,-5.46,-0.81
2890,10.63,80.37,21.62,-7.63,-5.24,-0.61
2900,3.81,52.19,58.88,-6,-1.92,0.31
2910,17.75,-0.31,129.62,-5.2,0.25,1.91
2920,26.12,-13.5,139.69,-4.91,1.9,3.2
2930,29.25,-0.19,131.12,-4.47,2.92,3.31
2940,29.25,-0.19,131.12,-4.47,2.92,3.31
2950,19.44,28.94,110.44,-4.81,2.68,0.87
2960,-7.56,56.44,83.19,-5.66,0.57,-0.89
2970,-10.56,47.5,84.44,-5.96,-0.77,-3.17
2980,-19.75,35.19,89,-6.07,-1.66,-3.78
2990,-19.75,35.19,89,-6.07,-1.66,-3.78
3000,-28.81,19.81,94.62,-6.16,-2.65,-4.4
3010,-41.5,-23.44,122.37,-4.99,-3.98,-3.98
3020,-36.44,-49.75,146.56,-4.35,-3.63,-3.42
3030,-35.13,-72.62,174.81,-3.42,-2.48,-2.36
3040,-35.13,-72.62,174.81,-3.42,-2.48,-2.36
3050,-39.88,-84.87,193.62,-2.06,-0.51,-0.59
3060,-18.31,-74.81,167.37,-0.79,0.76,0.88
3070,-14.31,-58.13,147.81,-1.02,-0.21,1.53
3080,-2.81,-30.87,136.69,-1.42,-1.68,1.78
3090,-2.81,-30.87,136.69,-1.42,-1.68,1.78
3100,15.25,1.94,142.75,-1.56,-3.82,0.03
3110,32.88,41.44,194.75,-0.3,-3.94,-2.96
3120,42.75,32.38,223.19,1.27,-1,-4.36
3130,64.19,7.44,251.06,2.75,1.65,-4.03
3140,64.19,7.44,251.06,2.75,1.65,-4.03
3150,92.81,-25.44,253.75,3.55,3.26,-3.63
3160,106.56,-50.38,227.75,4.26,4.57,-1.69
3170,89.19,-65.81,187.12,3.63,3.32,-0.63
3180,62.25,-73.5,146.75,3.22,2.33,0.01
3190,42.81,-70.81,120.75,3.22,2.33,0.01
3200,29.87,-57.75,111.31,3.06,1.94,0.04
3210,18.87,-43.88,107.44,3.79,4.27,-1.88
3220,12.69,-37.88,103,4.27,5.18,-2.35
3230,19.06,-48.56,88.37,4.63,3.96,-0.87
3240,26.62,-69.87,57.81,4.63,3.96,-0.87
3250,30.37,-87.44,19.75,4.34,2.02,0
3260,28.31,-94.25,-7.19,4.05,-1.09,1.81
3270,24.56,-90.44,-16.06,4.05,-2.31,1.94
3280,30.19,-74.62,-11.75,4.21,-2.18,1.37
3290,34.5,-55.63,0,4.21,-2.18,1.37
3300,22.75,-36.81,14.5,4.54,-1.62,1.12
3310,5.94,-23.19,24.94,5.48,-0.93,0.58
3320,-4.69,-16.44,26.75,5.52,-1.56,1.16
3330,-15.06,-14.19,23.75,5.51,-1.95,1.87
3340,-22.25,-10.06,22.5,5.51,-1.95,1.87
3350,-18.87,-0.62,25.81,5.73,-1.8,2.25
3360,-7.94,11.88,27.87,6.51,-0.55,1.73
3370,-2.56,23.25,24.56,6.7,0.1,1.85
3380,-0.75,35.06,19.44,6.89,1.12,0.98
3390,9.5,46.44,9.88,6.89,1.12,0.98
3400,23.62,55.38,-2.75,7.06,1.56,0.56
3410,36.19,62.06,-20.62,7.44,1.8,0.06
3420,50.31,64.25,-43.31,7.63,1.1,-0.2
3430,68.94,60.13,-66.44,7.53,0.45,0.1
3440,86.19,49.5,-86.19,7.53,0.45,0.1
3450,95.44,38.75,-101.25,7.34,-0.39,0.46
3460,87.25,35.94,-106.62,6.62,-0.98,2.25
3470,64,45.5,-99.44,6.73,0.02,2.66
3480,44.19,64.44,-85.56,6.85,0.87,2.19
3490,35.06,90.94,-75.5,6.85,0.87,2.19
3500,26.31,118.75,-77.19,6.07,1.36,1.04
3510,16.19,143.37,-83.06,4.5,1.76,0.08
3520,12.44,167.31,-90.12,3.69,1.64,-0.84
3530,13.06,194.12,-99.56,1.3,-0.71,-5.57
3540,14.56,216.87,-115.56,1.3,-0.71,-5.57
3550,12.25,217.31,-126.25,0.57,-1.9,-7.77
3560,6.19,195.94,-128.87,-3.42,-3.54,-6.92
3570,-21.31,164.81,-112.31,-3.15,-1.07,-6.29
3580,-21.69,140.69,-83.44,-4.01,-0.95,-6.76
3590,4.87,117.69,-72.56,-4.01,-0.95,-6.76
3600,-14.31,113.44,-72.87,-4.6,-1.01,-6.47
3610,-50.38,117.69,-71.19,-5.38,-0.8,-6.24
3620,-49.5,109.5,-66.12,-5.38,-0.8,-6.24
3630,-31.25,91.94,-63.19,-5.61,-0.65,-5.85
3640,-16.94,71.75,-62.63,-5.62,-0.46,-5.23
3650,-4.56,54,-63.06,-5.89,-0.73,-4.73
3660,1.06,37.94,-60.25,-5.78,-0.11,-4.13
3670,-1.12,23.62,-50.5,-5.21,0.9,-3.59
3680,-0.19,9.25,-45.06,-4.66,1.74,-3.07
3690,-0.25,-4.5,-50.94,-3.82,2.3,-1.11
3700,3.44,-14.25,-65,-3.4,1.93,-0.51
3710,17.62,-23,-83.19,-3.37,1.08,-0.02
3720,33.06,-30.12,-100.19,-3.41,-0.17,0.19
3730,45.38,-37.75,-109.44,-3.69,-2.86,0.83
3740,52.31,-47.75,-107.37,-4,-3.64,1.68
3750,53,-56.13,-92.06,-4.3,-3.87,2.42
3760,49.5,-51.56,-63.81,-4.16,-3.5,2.37
3770,36.75,-37.56,-32.19,-3.73,-1.75,1.44
3780,18.56,-23.44,-6,-3.51,-0.29,1.13
3790,11.44,-14.38,10.63,-3.11,1.35,0.62
3800,15.44,-7,12.56,-3.09,2.84,-1.82
3810,17.69,0.06,-1.69,-3.53,2.39,-3.1
3820,18.81,-5.31,-22.62,-3.95,1.62,-4.12
3830,21.94,-25.12,-37.38,-4.49,0.82,-4.45
3840,23.94,-51.31,-39.94,-4.67,0.67,-3.74
3850,23.56,-72.44,-34.5,-4.62,0.64,-3.62
3860,9.88,-85,-28.56,-4.35,0.81,-2.9
3870,-8.5,-94.06,-22.25,-4.37,1.09,-1.58
3880,-5.87,-99.06,-15.44,-3.33,2.69,-1.97
3890,-0.06,-98.25,-11.69,-2.74,3.15,-2.15
3900,-7.25,-99.25,-19.06,-2.56,2.82,-2.11
3910,-13.88,-100.75,-34,-2.65,0.59,-2.3
3920,-18.06,-103.25,-43,-2.23,0.01,-2.36
3930,-20.56,-109,-39.63,-1.83,-0.03,-2.14
3940,-21.69,-116.81,-31.25,-1.28,0.26,-1.79
3950,-24,-123.12,-23.25,0.03,1.36,-0.64
3960,-26.19,-124.69,-21.81,0.73,1.28,-0.59
3970,-29.06,-122.19,-27.69,1.02,0.95,-0.26
3980,-36,-118.06,-34.06,1.49,0.57,0.13
3990,-40.44,-111.12,-38.88,1.99,-0.81,0.25
4000,-40.94,-100.87,-42.94,1.99,-1.62,-0.06
4010,-39.81,-92.19,-42.94,2.17,-2.2,-0.33
4020,-33.5,-89.37,-36.56,3.16,-2.94,-0.73
4030,-24.87,-94.12,-27.75,3.42,-3.28,-0.37
4040,-23.37,-111,-5.62,3.75,-3.4,0.11
4050,-21.31,-114.37,10,4,-3.15,0.74
4060,-13.69,-106.5,27.5,4.74,-1.77,2.59
4070,-5.37,-89,40.5,5.68,-0.46,2.88
4080,-3.25,-67.56,39.44,6.18,0.52,2.91
4090,-9,-41,26.62,6.49,1,2.77
4100,-13.25,-14.63,10.63,6.33,1.04,2.05
4110,-10.06,6.37,-1.94,6.33,1.02,1.12
4120,-6.5,18.25,-16.12,6.47,0.72,0.11
4130,-7.94,21.94,-31.69,6.41,0,-0.61
4140,-8.81,19.19,-41.63,5.83,-2.75,-0.72
4150,-0.5,11.13,-34.13,5.47,-3.7,-0.43
4160,15.19,-1.62,-9.81,5.47,-3.81,-0.13
4170,23.56,-7.56,14.88,6.04,-1.94,0.97
4180,20.12,2.31,29.5,6.36,-0.92,1.63
4190,13.31,21,34.81,6.3,0,1.99
4200,8.81,43.19,35.19,6.34,0.95,1.9
4210,2.56,64,27.19,6.55,2.89,0.72
4220,-4.69,79.44,6.25,6.39,2.98,0.26
4230,-7.12,91.5,-22.56,5.91,2.17,-0.07
4240,-3.62,98.19,-43.69,4.96,0.73,-0.38
4250,7.31,104.81,-53.63,3.52,-1.41,-1.52
4260,17.44,105.5,-60.75,2.72,-2.92,-3.49
4270,9,92.87,-58,1.52,-4.61,-4.89
4280,-4.5,65.75,-32.38,-0.75,-6.33,-3.81
4290,-2.31,33.88,13.75,-1.52,-5.06,-1.59
4300,13.69,18.94,58.5,-0.8,-2.79,-0.27
4310,22.25,22.56,79.69,-0.45,-0.01,0.36
4320,22.5,32.94,63.94,0.5,3.23,1.12
4330,12.31,52.56,24.12,-0.74,2.31,1.4
4340,-12.44,91.81,-8.19,-1.4,0.6,1.29
4350,-25.69,123.5,-25,-1.54,-0.7,0.91
4360,-27.25,128.87,-35.19,-3.25,-5.14,-2.24
4370,-38.25,120.25,-21.56,-4.37,-7.18,-2.85
4380,-45.56,100.87,24.06,-5.15,-7.81,-2.18
4390,-23.69,77.44,86.06,-4.85,-6.54,-1.02
4400,15.69,62.88,130.5,-3.31,-0.27,0.1
4410,46.31,58.31,142.19,-2.34,2.57,-0.32
4420,56.31,56.13,123,-1.91,4.66,-0.62
4430,55.38,51.63,77.81,-0.78,6.17,-0.29
4440,48.63,46.63,11.88,-1.11,3.97,-0.38
4450,18.94,46.13,-40.88,-2.11,0.19,-0.29
4460,-23.5,50.63,-55.56,-3.32,-3.61,0.54
4470,-44.06,56.13,-24.69,-5.73,-7.66,2.19
4480,-32.5,59.56,46.94,-5.71,-7.28,2.49
4490,-1.56,62.88,130.12,-4.58,-4.75,2.18
4500,31.69,63.56,188.12,-3.6,-1.59,1.1
4510,43.06,58.25,212.75,-2.08,3.7,-1.39
4520,29.81,48.63,214,-1.24,5.41,-1.89
4530,5.5,37.69,194,-1.36,6.43,-2.01
4540,-17.75,23.87,166.69,-1.7,7.2,-1.09
4550,-34.69,14.31,138.5,-2.05,7.05,0.1
4560,-32,14.81,112.62,-2.29,7.09,0.78
4570,-10.25,21.25,85.81,-2.16,7.28,0.36
4580,5.75,25.62,49.88,-2.47,5.56,-1.92
4590,3.87,24.44,11.19,-3.35,3.19,-2.4
4600,-6,18.5,-11.38,-4.21,0.66,-2.7
4610,-16.69,9.44,-8.06,-5.05,-1.46,-2.93
4620,-28.69,-1.62,18,-5.94,-3.75,-3.05
4630,-39.88,-11.63,58,-5.72,-3.7,-3.01
4640,-47.44,-19.62,98.87,-5.17,-2.84,-3.31
4650,-54.13,-29.69,127.87,-4.4,-1.54,-3.71
4660,-62.56,-41.44,140.31,-2.86,1.32,-2.84
4670,-58.56,-52.19,137.94,-2.35,2.17,-2.26
4680,-44.25,-58.69,123.62,-2.04,2.3,-2.37
4690,-42.5,-62.13,107.44,-1.49,1.92,-1.38
4700,-46.63,-59.69,94.5,-1.47,1.27,-0.99
4710,-36.94,-55.38,88.37,-1.49,0.53,-1.66
4720,-34.19,-57.63,95.25,-1.22,0.36,-2.62
4730,-50.88,-68,105.69,0.33,2.18,-2.03
4740,-66.12,-79.5,103.19,0.85,2.31,-1.31
4750,-67.44,-84,89.12,1.04,2.06,-0.91
4760,-63.19,-83.12,74.5,1.28,1.75,-0.5
4770,-53.38,-78.69,60.81,1.89,1.33,-0.25
4780,-40.75,-74.12,46.13,1.99,0.71,-0.46
4790,-29.19,-72.44,34,2.02,0.05,-0.43
4800,-17.12,-74.94,28.5,2.55,-0.88,-0.04
4810,-8.13,-80.56,27.12,2.75,-1.3,0.32
4820,-8.25,-83.56,30.19,3,-1.54,0.8
4830,-12.44,-82.25,37.19,3.43,-1.34,1.49
4840,-13.25,-70.19,43,4.32,-0.28,2.43
4850,-5.25,-50.94,44.19,4.68,0.14,2.16
4860,3.81,-29.69,38.63,4.98,0.26,1.52
4870,6.06,-12.75,31.06,5.16,0.2,0.78
4880,6.31,-2.81,25.12,5.72,0.07,-0.32
4890,8.13,-2.37,20.81,5.98,0.13,-0.61
4900,9.56,-8.94,17.25,6.35,0.39,-0.63
4910,8.38,-18.69,11,6.86,0.69,-0.19
4920,8.25,-28.25,-0.25,7.34,0.9,1.74
4930,12,-29.12,-15.5,7.46,0.79,2.53
4940,15.69,-16.31,-33.13,7.62,0.44,2.84
4950,13.81,1.44,-51.56,7.65,-1.34,2.55
4960,4.81,21.19,-66.12,7.4,-2.47,2.38
4970,-7.19,37.31,-71.19,6.99,-3.39,2.31
4980,-13.75,47.38,-64.94,6.9,-3.84,2.33
4990,-12.25,50.81,-51.88,6.56,-3.42,3.06
5000,-3.31,53.94,-38.13,6.49,-2.54,3.45
5010,9.25,61.5,-28.62,6.36,-1.39,3.68
5020,18.75,74.25,-26.44,6.46,-0.15,3.56
5030,23.19,88.75,-34.31,6.35,1.04,3.1
5040,23.12,103.44,-51.56,5.96,0.51,3
5050,18.19,122,-66.37,5.23,-0.44,2.75
5060,4.56,150.25,-70.81,4.15,-1.37,2.24
5070,-19.25,190.94,-64.69,2.03,-3.24,-0.46
5080,-51.63,232.31,-47.69,0.62,-3.27,-1.96
5090,-64.06,245.44,-21.69,0.05,-2.45,-3.12
5100,-64.06,245.44,-21.69,-0.13,0.65,-6.98
5110,-32.75,233.56,0.69,-0.04,2.51,-7.36
5120,50,143.19,-3.94,-0.36,3.05,-7.56
5130,60,98.81,-31.12,-1.24,2.33,-6.71
5140,36.25,74.69,-47,-2.86,-0.07,-3.83
5150,36.25,74.69,-47,-3.11,-0.45,-2.72
5160,1.25,73.12,-41.56,-3.01,-0.04,-1.8
5170,-41.31,95.5,-3.81,-2.93,0.55,-1.2
5180,-39.31,108.81,4.19,-3.3,1.53,-2.4
5190,-29.62,116.62,6.44,-3.71,1.66,-3.42
5200,-29.62,116.62,6.44,-4.37,1.64,-4.17
5210,-14.63,111.06,3.81,-4.26,2.75,-5.03
5220,12.75,73.25,5.37,-4.14,2.95,-4.74
5230,12.44,48.88,-2.19,-4.39,2.58,-3.69
5240,2.31,31.5,-9.25,-4.71,1.94,-2.56
5250,2.31,31.5,-9.25,-5.27,0.74,-1.94
5260,-8.88,26.44,-8.88,-5.24,0.96,-2.08
5270,-20.31,26.75,14.06,-4.92,1.64,-2.35
5280,-16.19,21.69,22.44,-4.8,2.37,-2.51
5290,-8.38,16.62,24.25,-4.65,4.48,-3.35
5300,-8.38,16.62,24.25,-4.65,4.48,-3.35
5310,4,12,20.06,-4.4,5.61,-4.45
5320,11.44,-19.12,-20.62,-3.85,5.84,-5.99
5330,-1.31,-45.69,-49.13,-4.28,3.22,-4.5
5340,-13.13,-68.69,-63.81,-4.05,2.62,-3.24
5350,-13.13,-68.69,-63.81,-4.05,2.62,-3.24
5360,-11.88,-84.44,-66.62,-3.71,2.53,-2.63
5370,8.5,-104.56,-71.75,-2.25,3.09,-2.41
5380,12.25,-116.31,-79.31,-1.92,2.94,-2.19
5390,12.38,-127,-86.25,-1.51,2.77,-1.99
5400,12.38,-127,-86.25,-1.51,2.77,-1.99
5410,6.12,-134.56,-90.12,-0.62,2.88,-1.02
5420,-8.25,-140.44,-101.25,0.68,3.61,-0.11
5430,-5.19,-137.87,-115.87,1.46,3.8,-0.1
5440,6.62,-138.56,-138,2.35,2.15,-0.34
5450,6.62,-138.56,-138,2.35,2.15,-0.34
5460,10.94,-143.5,-162.44,2.4,0.78,0.07
5470,14.19,-150.5,-185.06,2.61,-2.3,0.89
5480,19.37,-152.94,-180.75,2.61,-3.08,1.02
5490,9.63,-151.87,-171.06,2.53,-3.67,1.35
5500,9.63,-151.87,-171.06,2.53,-3.67,1.35
5510,-8.44,-146.12,-153.06,2.59,-3.94,1.67
5520,-21.75,-133.94,-129.25,3.03,-3.36,1.44
5530,-25.81,-119.37,-104.31,3.42,-2.55,0.63
5540,-26.37,-105.94,-81.75,3.89,-1.75,-0.12
5550,-29.06,-98.75,-64.56,3.89,-1.75,-0.12
5560,-31.94,-103.62,-55.44,4.67,-0.83,-0.04
5570,-36.06,-116.56,-56.31,5.24,-0.97,1.28
5580,-41.13,-125.5,-59.06,5.32,-1.11,2.04
5590,-43.19,-129.94,-62.19,5.06,-1.71,3.51
5600,-40.06,-124.56,-66.06,5.06,-1.71,3.51
5610,-30.56,-101.44,-68,5.14,-1.89,3.4
5620,-23.25,-70.75,-65.19,4.97,-1.02,1.33
5630,-19.06,-39.13,-61.25,4.99,-0.78,-0.04
5640,-10.81,-9.88,-58.63,5.1,-0.6,-1.25
5650,-5.31,12.94,-60.63,5.1,-0.6,-1.25
5660,-7.75,18.37,-65.69,5.15,-0.91,-2.22
5670,-18.5,8.06,-73.81,4.66,-2.75,-0.98
5680,-29.44,-11,-75.25,4.51,-3.09,-0.2
5690,-31.81,-25.06,-70.81,4.41,-3.2,0.43
5700,-29.87,-33.38,-60.13,4.41,-3.2,0.43
5710,-27,-32.25,-47.13,4.44,-3.08,1.8
5720,-21.81,-20.81,-34.25,4.33,-2.42,2.03
5730,-12.75,0.62,-20.12,3.96,-1.17,0.75
5740,-3.31,25.06,-9.31,3.63,-0.75,-0.92
5750,6.19,50.94,-2.25,3.63,-0.75,-0.92
5760,9.31,77.62,0.94,3.75,-0.28,-2.66
5770,-8.63,90.69,4.5,3.36,-0.26,-1.93
5780,-36,71.94,2.56,4.33,-0.21,-0.04
5790,-51.69,40.25,-3.37,4.13,-0.11,2.28
5800,-53.25,15.56,-12.63,4.13,-0.11,2.28
5810,-36.81,2.5,-34.56,3.23,-0.98,4.23
5820,-3,27.75,-57.88,-0.99,-1.93,-1.28
5830,18.44,88.06,-59.5,-1.66,-1.55,-5.69
5840,8.19,156.19,-46,-1.64,-1.7,-8.58
5850,-44,123.37,-25.12,-1.64,-1.7,-8.58
5860,-34.25,47.69,-18.94,-2.02,-1.77,-6.35
5870,-34.25,47.69,-18.94,-1.63,-1.63,-0.31
5880,13.5,-43,-15.19,-2.02,-1.86,2.93
5890,16.25,-35.31,-18.06,-2.87,-2.11,3.27
5900,15.56,3.12,-16.94,-2.87,-2.11,3.27
5910,8.88,49.44,-6.19,-3.22,-2.41,2.39
5920,-1.44,82.94,12.81,-4.17,0.03,-1.27
5930,-3.44,87.5,32.69,-4.54,1.67,-2.12
5940,5,69.06,47.63,-4.18,3.25,-2.52
5950,15.88,43.69,48.19,-4.18,3.25,-2.52
5960,29.75,16.44,25.87,-3.59,4.55,-1.64
5970,28.12,14.63,-9.06,-18.57,-3.4,-5.45
5980,-31.37,75.75,-16.56,-18.57,-3.4,-5.45
5990,-59.5,117,22.19,-17.62,-6.16,-10.3
6000,-15.56,0.31,89.94,-9.11,-5.58,-14.37
6010,21.56,-202.62,141.37,-1.18,0.62,-3.63
6020,65.06,-338.44,164.06,0.2,4.03,4.26
6030,98.62,-391.44,136.69,3.15,6.23,7.3
6040,63.5,-273.31,75.87,-0.43,5.87,17.01
6050,40.63,-98.12,18.62,-0.5,4.52,15.18
6060,60.5,48.13,-5.44,-1.22,1.92,8.46
6070,30.31,143.62,-5.62,-2.54,0.8,5.72
6080,21.44,217.19,14.5,-4.13,-0.04,1.2
6090,-3.5,219.25,39.13,-2.93,0.37,-4.94
6100,-20.62,138.81,49.88,-2.8,0.58,-6.95
6110,0.31,51,54.69,-3.82,0.72,-7.45
6120,15.13,-22.37,56.31,-3.65,1.98,-5.69
6130,0.31,-59.13,49.25,-2.51,2.13,-3.84
6140,-22.19,-67.62,34.56,-2.06,1.86,-2.21
6150,-33.5,-60.25,18.81,-2.22,-0.52,-0.76
6160,-33,-49.63,13.56,-2.3,-1.55,-1.04
6170,-28.25,-44.5,19.37,-2.22,-2.31,-1.63
6180,-23.12,-47.63,31.37,-2.03,-2.76,-2.09
6190,-18.12,-57.38,46.5,-1.46,-2.82,-1.69
6200,-9.94,-66.75,64.37,-0.99,-2.4,-0.94
6210,0.88,-68,79.5,-0.59,-1.77,-0.38
6220,6.69,-60.88,92.75,0,-0.89,-0.34
6230,6.81,-52.19,98.12,1.06,1.42,-0.95
6240,3.37,-46.69,93.12,1.49,2.1,-1.49
6250,-3.62,-47.63,80.12,1.92,2.26,-1.7
6260,-9.5,-51.94,64.81,2.05,2.1,-1.47
6270,-12.19,-53.88,52.81,1.92,1.05,-0.73
6280,-10.5,-50.69,50.06,1.81,0.86,-0.52
6290,-2.25,-44,51.94,2.03,0.87,-0.61
6300,5.5,-39.19,50.75,2.51,0.75,-1.33
6310,7.37,-37.63,50.25,2.5,0.66,-1.7
6320,1.69,-39.19,54.38,2.72,1.01,-1.98
6330,-7.12,-43.81,55.69,3.06,1.32,-2.04
6340,-10.81,-51,52.13,3.6,1.4,-1.26
6350,-9.75,-59.06,46.88,3.79,1.13,-0.85
6360,-8.5,-62,41.38,3.96,0.76,-0.37
6370,-4.94,-60.44,37.88,4.19,0.49,0.21
6380,7.19,-55.56,37.81,4.45,0.84,1.34
6390,28.19,-45.19,38.19,4.88,1.6,1.64
6400,50.31,-29.87,30.5,5.19,2.33,1.34
6410,59.5,-16.06,13.06,5.61,2.61,-0.07
6420,48.69,-4.5,-8.38,5.68,2.05,-0.41
6430,28.37,3.12,-29.31,5.54,0.86,-0.39
6440,14.06,7.12,-40.38,5.07,-0.57,-0.03
6450,10.19,8.94,-34.31,4.59,-2.32,0.33
6460,10.13,10.31,-17,4.71,-2.33,0.8
6470,13.31,13.25,2.06,4.88,-1.8,1.17
6480,17.44,19.44,16.37,5.16,-0.82,1.3
6490,14.81,28.25,21.44,5.6,1.11,0.92
6500,4.12,37.56,17.19,5.73,1.77,1.03
6510,-5.94,46.63,5,5.9,2.16,1.13
6520,-14.38,55.81,-12.75,5.59,2.04,1.25
6530,-19.62,67.75,-27.62,4.88,1.01,1.13
6540,-18.19,79.81,-36,4.66,0.67,0.92
6550,-11,90.37,-41.31,4.15,0.46,0.67
6560,-3.94,108.12,-40.44,3.06,1.26,-0.64
6570,0.88,131.25,-37,3.16,1.98,-1.96
6580,-1.12,140.5,-42.44,3.11,2.39,-3.75
6590,-12.44,122.81,-57.25,3.11,2.25,-4.55
6600,-23.87,94.5,-75.12,2.29,0.05,-3.77
6610,-32.56,65.62,-86.44,1.8,-1.34,-2.07
6620,-36.38,48.13,-86.62,1.13,-2.68,-0.05
6630,-32.38,45.81,-74.31,0.44,-3.83,1.39
6640,-23.87,64.87,-46.81,-0.6,-3.66,3.68
6650,-7.69,101.94,-14.63,-1.29,-3.06,3.33
6660,-0.62,140.81,7.69,-1.27,-2.62,2.27
6670,-13.38,177.25,20.87,-1.57,-2.03,1.76
6680,-12.81,206,26.75,-2.02,-0.59,-0.4
6690,12.56,208.56,29.06,-2.94,0.11,-2.38
6700,36.88,198.5,33.5,-3.05,1.3,-4.42
6710,40.13,173.31,29.12,-3.44,2.91,-6.73
6720,27,139,12.38,-4.1,2.8,-6.49
6730,14.06,104.19,-5.12,-4.85,2.33,-5.91
6740,6.87,74.5,-14.38,-5.52,1.82,-5.22
6750,0.75,52.63,-16.81,-6.09,0.95,-3.86
6760,-4.12,35,-17.56,-6.58,0.62,-2.78
6770,-3.56,23.31,-16,-6.81,0.37,-1.98
6780,4.12,20.5,-11.5,-6.81,0.43,-2.02
6790,10.19,16.12,-5.31,-6.72,0.89,-3.45
6800,4.87,6.44,2.44,-6.33,1.55,-3.76
6810,-3.81,-7.56,7.12,-5.98,2.17,-3.96
6820,-11.5,-25.25,7.31,-5.14,3.12,-3.95
6830,-20.87,-44.81,4.81,-4.48,3.71,-3.07
6840,-22.31,-64.56,-3.12,-3.88,4.26,-2.02
6850,-9.44,-80.62,-17.75,-3.17,4.66,-1.04
6860,5.75,-88.75,-36.06,-2.45,4.58,0.56
6870,16.25,-88.12,-54.75,-2.12,4.14,0.86
6880,22.25,-80.87,-73.69,-2.31,3.22,0.73
6890,16.94,-67.25,-83.81,-2.84,1.9,0.04
6900,-7.06,-47.5,-77.69,-2.97,0.91,-1.51
6910,-22.44,-40.13,-65.37,-3.22,0.74,-2.48
6920,-26.06,-48.88,-55.56,-3.23,0.52,-3.25
6930,-33.44,-65.69,-42.44,-2.95,1.48,-2.82
6940,-36.69,-84.75,-27.69,-2.05,2.85,-2.29
6950,-32.19,-101.37,-22.12,-1.03,3.87,-1.98
6960,-30.81,-115.37,-32.13,-0.29,4.25,-1.32
6970,-36.69,-122.06,-52.38,0.48,3.2,0.33
6980,-43.5,-119.87,-73.69,0.56,2.2,0.89
6990,-46.81,-112.06,-90.56,0.85,0.93,1
7000,-46.5,-103.56,-98.87,0.74,-0.18,1.11
7010,-45.13,-95.44,-97.44,1.08,-1.67,1.27
7020,-41.56,-86.87,-90.94,1.37,-1.99,1.3
7030,-35.56,-76.69,-81.87,1.51,-2.14,1.29
7040,-24.69,-64.06,-72.12,1.86,-2.03,1
7050,-12.31,-50.25,-63.19,2.81,-1.32,-0.68
7060,-3.25,-43.63,-59.19,3.3,-0.91,-1.5
7070,-0.94,-45.81,-61.69,3.62,-0.97,-1.98
7080,-4.12,-52.69,-68.12,4.01,-2.35,-1.9
7090,-12.13,-62.06,-72.69,4.08,-3.25,-1.37
7100,-19.06,-69,-69.25,4.23,-3.86,-0.89
7110,-20.81,-75.81,-58.5,4.46,-4.2,-0.49
7120,-19,-83.56,-45.19,4.37,-4.75,0.94
7130,-13.81,-82.69,-27.12,4.36,-4.5,1.71
7140,-3.62,-67.06,-1.56,4.94,-3.46,2.02
7150,10,-47.75,20,5.51,-2.1,1.85
7160,21.5,-30,27.37,6.24,-0.43,0.66
7170,24.06,-16.5,22.44,6.37,-0.37,0.34
7180,19,-8.88,12.25,6.32,-0.65,0.32
7190,13.81,-4.75,4.12,5.79,-1.89,0.47
7200,8.5,-1.81,2,5.52,-2.4,0.71
7210,3.87,2.25,9,5.51,-2.43,1.06
7220,4.12,8.56,23.06,5.41,-2.04,1.42
7230,6.69,18.87,35.56,5.64,-0.71,1.66
7240,10.63,34.56,42.13,5.72,-0.03,1.17
7250,15.38,49.88,40.25,5.57,0.17,0.57
7260,13.19,62.19,31.75,5.15,-0.01,0.2
7270,7.25,69.69,24.94,4.52,-0.49,-0.18
7280,4.94,74,21.19,4.25,-1.05,-0.39
7290,2.94,75.37,19,3.84,-1.79,-0.27
7300,0,74.12,21,3.28,-2.47,0.36
7310,3.31,75.06,31.62,2.63,-2.57,1.51
7320,12.94,81.69,48.56,2.53,-1.8,1.74
7330,20.12,97.75,63.63,2.45,-0.78,1.71
7340,25.19,122.12,67.75,2.18,0.04,0.03
7350,27.69,146.31,61.81,1.19,-0.17,-1.13
7360,22.44,168.06,54.94,1.63,-0.44,-2.67
7370,15.25,166.44,52.5,0.73,-0.35,-3.26
7380,15.88,149.37,50.81,-0.66,-0.93,-3.77
7390,18.69,125.06,46.88,-1.28,-1.64,-3.32
7400,4.62,111.5,52.38,-1.35,-1.55,-2.39
7410,4.62,111.5,52.38,-1.56,-1.21,-1.25
7420,8.5,105.25,66,-1.61,-0.96,-1.11
7430,32.44,110.12,67.31,-1.84,-0.35,-1.19
7440,50.5,119,67.81,-1.99,0.19,-1.65
7450,68.25,126.75,62.38,-2.27,0.43,-2.68
7460,80.25,124.94,53.5,-3.67,-0.23,-5.04
7470,74.81,113,46.06,-4.46,-0.85,-5.4
7480,53.13,94.87,50.63,-4.84,-1.05,-5.05
7490,33.38,72.56,67.06,-4.93,0.1,-3.33
7500,26.31,50.75,85,-4.67,0.96,-2.73
7510,26.31,50.75,85,-4.76,1.91,-2.28
7520,24.12,38,98.81,-4.8,2.8,-2.12
7530,16.87,39.38,104,-4.86,4.19,-2.94
7540,18.62,43.38,98.5,-5.05,4.58,-3.52
7550,24.56,40.38,87.44,-5.24,4.62,-4.04
7560,24.56,40.38,87.44,-5.39,4.25,-4.63
7570,31.19,30.37,70.94,-5.81,3.41,-4.7
7580,45.56,-5.81,46.94,-5.83,3.49,-4.36
7590,57.5,-21.12,46.06,-5.65,4.03,-4.48
7600,69,-25.56,46.38,-5.33,4.41,-6.71
7610,69,-25.56,46.38,-5.26,3.76,-7.73
7620,63.13,-24.5,39.69,-5.47,2.7,-8.3
7630,4.19,-41.38,21.81,-5.51,1.78,-8.12
7640,-12.94,-67.12,28.62,-4.24,2.24,-6.52
7650,-8.75,-97.44,43.94,-3.2,3.12,-5.53
7660,-8.75,-97.44,43.94,-2.23,3.75,-5.01
7670,23.25,-144.56,48.69,-1.05,3.95,-4.79
7680,14.31,-157.25,34.56,-0.16,2.65,-2.07
7690,-10.31,-166.5,12.88,0.12,1.69,-0.96
7700,-14.38,-157.06,16.75,0.41,1.02,0.04
7710,-14.38,-157.06,16.75,0.85,0.92,0.53
7720,-18.31,-138,24.37,1.96,1.37,0.11
7730,-30.75,-106.25,18.75,2.38,1.18,-0.68
7740,-38.5,-106.5,11,2.85,0.71,-1
7750,-34.13,-115.56,5.75,3.61,-0.28,-0.14
7760,-34.13,-115.56,5.75,3.61,-0.28,-0.14
7770,-17.06,-129.44,3.75,4.06,-0.63,0.5
7780,23.62,-145.69,8.81,4.73,-0.93,2.01
7790,39.94,-133.44,14.13,5.19,-0.57,2.39
7800,43.31,-115.37,16.19,5.48,-0.56,2.16
7810,43.31,-115.37,16.19,5.48,-0.56,2.16
7820,29.62,-89.75,17,5.65,-0.65,1.89
7830,-14.88,-51,23.44,5.92,-0.89,1.59
7840,-17.31,-46.38,25.19,6.14,-0.73,1.67
7850,-5.25,-49.56,23.81,6.27,-0.63,1.96
7860,-5.25,-49.56,23.81,6.27,-0.63,1.96
7870,6.87,-49.63,20.62,6.48,-0.58,2.36
7880,3.69,-33.25,13.63,6.64,-0.95,1.94
7890,3.69,-33.25,13.63,6.59,-1.09,1.94
7900,-7.75,-25.69,14.56,6.55,-0.99,2.33
7910,-15.5,-22.5,18,6.55,-0.99,2.33
7920,-19.69,-21.31,25.69,6.66,-0.53,2.42
7930,-24.62,-21.44,32.06,7.23,0.75,3.03
7940,-30.56,-20.31,30.37,7.17,1.19,3.81
7950,-36.81,-14.25,21.81,7.11,1.3,4.11
7960,-44.75,0.5,12.06,7.11,1.3,4.11
7970,-46.44,21,1.75,7.01,1.47,4.41
7980,-38.69,48.38,-11.5,6.19,0.73,3.28
7990,-25.06,75.25,-24.12,5.86,0.68,2.63
8000,-7.75,92.06,-31.25,5.59,0.82,2.18
8010,10.25,100.19,-35.5,5.59,0.82,2.18
8020,23.37,101.81,-39.75,5.35,1.49,1.48
8030,27.06,99.5,-48.75,5.05,1.23,1.12
8040,17.87,99.62,-61.38,4.25,0.29,1.6
8050,-2.37,110.62,-72.56,3.27,-1.66,1.51
8060,-23.19,133.62,-73.25,3.27,-1.66,1.51
8070,-37.44,159.87,-64,2.64,-2.18,1.51
8080,-39.19,180.37,-47.06,1.38,-2.08,1.41
8090,-24.56,192.25,-25.94,0.31,-0.46,-0.01
8100,-3.69,199.56,-4.62,0.04,0.72,-1.55
8110,10.38,203.62,12.06,0.04,0.72,-1.55
8120,9.56,203.31,20.75,-0.3,1.99,-2.76
8130,-2.87,199.37,18.12,-1.6,4.08,-5.45
8140,-27.25,191,10.06,-1.69,4.23,-5.37
8150,-40.19,178,-3.87,-2.27,3.57,-5.98
8160,-38.19,165.81,-22.62,-2.27,3.57,-5.98
8170,-44.44,152.56,-33.56,-4.16,1.77,-6.93
8180,-54.06,140,-34.56,-4.49,1.43,-6.58
8190,-38.75,119.5,-29.19,-4.91,1.36,-6.47
8200,-17.5,93.25,-30.62,-4.9,0.47,-4.6
8210,-6.75,73.25,-39.19,-4.9,0.47,-4.6
8220,4.94,60.13,-48.38,-5.34,-0.55,-3.93
8230,12.75,56.31,-45.94,-6.08,-1.17,-4.01
8240,14,61.38,-31.44,-5.75,-0.23,-6.42
8250,3.31,61,-18,-5.76,-0.3,-6.7
8260,-17.31,48.25,-11.69,-5.76,-0.3,-6.7
8270,-35,26.12,-7.31,-5.93,-0.53,-6.12
8280,-38.44,5,1,-5.4,1.4,-4.11
8290,-26.5,-11.56,11.94,-4.7,2.79,-4
8300,-12.38,-25.62,14.63,-4.19,3.58,-3.74
8310,-6.5,-37.56,2,-4.19,3.58,-3.74
8320,-8.25,-48.75,-20.12,-4.11,2.43,-3.14
8330,-17.62,-57.06,-37.13,-4.68,0.05,-2.36
8340,-28.81,-62.63,-38.56,-4.41,0.03,-2.27
8350,-37.13,-64.62,-24.94,-3.5,1.81,-2.62
8360,-40.06,-68.5,-11.19,-3.5,1.81,-2.62
8370,-43.38,-73.25,-7,-2.88,2.71,-2.84
8380,-45.81,-79.87,-13.38,-2.38,3.28,-2.81
8390,-41.63,-90.81,-28.19,-1.9,3.52,-2.59
8400,-33.06,-102.5,-46.94,-1.51,2.18,-1.58
8410,-25.25,-109.75,-60.44,-1.42,1.28,-1.23
8420,-22.37,-112.25,-64.81,-1.27,0.55,-1.01
8430,-23.12,-110.75,-62.44,-0.83,-0.09,-0.44
8440,-21.69,-108.37,-56.69,-0.3,0,-0.57
8450,-19.37,-107.5,-52.75,0.31,0.18,-0.65
8460,-19,-110.19,-54.25,0.89,0.21,-0.43
8470,-18.56,-111.31,-59,1.52,-0.22,0.44
8480,-14.06,-109.69,-63.56,1.97,-0.41,0.69
8490,-7.19,-107.31,-69,2.38,-0.7,0.87
8500,0,-104.19,-74.5,2.65,-1.16,1.02
8510,4.37,-100.75,-78,2.89,-2.52,1.33
8520,4.81,-96.19,-77.56,2.94,-3.21,1.38
8530,3.37,-91.94,-70.44,2.9,-3.83,1.44
8540,-0.25,-86.5,-57.75,2.9,-4.59,1.67
8550,-6.31,-79.44,-40,3.01,-4.52,1.87
8560,-12.31,-68.94,-18.69,3.24,-3.95,1.98
8570,-13.56,-54.38,1.19,3.68,-2.84,1.64
8580,-11,-42.88,11.75,4.7,-0.27,0
8590,-11.63,-39.44,9.19,5.12,0.27,-0.64
8600,-17.87,-45.88,-4.81,5.25,-0.05,-0.51
8610,-23,-56.13,-19.62,5.12,-0.96,0.29
8620,-20.5,-61.06,-25.44,4.81,-2.66,1.96
8630,-13.69,-57.56,-20.5,4.78,-2.93,2.2
8640,-6.06,-47.13,-9.94,4.91,-2.74,2.64
8650,4.62,-30.19,0.75,5.18,-1.98,2.48
8660,13.5,-10.69,8.63,5.3,-1.41,2.01
8670,17.06,4.81,12.75,5.41,-0.82,1.74
8680,20.69,14.56,12.5,5.51,-0.29,1.35
8690,25.12,18.19,8.06,5.39,-0.08,0.94
8700,26.5,19.62,0.88,5.09,-0.35,1.05
8710,25.25,22.56,-4.31,4.95,-0.79,1.17
8720,23.19,26.12,-5.75,4.69,-1.3,1.53
8730,23,32,-3.19,4.31,-2.15,2.27
8740,25.87,42.88,4,4.23,-2.24,2.4
8750,31.56,58.94,13.5,4.1,-2.07,2.29
8760,37.38,76.87,21.94,4.05,-1.87,1.64
8770,37.44,92.81,26.69,3.55,-2.1,0.06
8780,33,101.56,29.69,3.07,-2.63,-0.32
8790,28.44,103.06,33.25,2.35,-3.23,-0.66
8800,33.44,94.69,44.19,1.94,-3.3,-1.39
8810,47.31,79.37,60.5,1.84,-2.44,-0.68
8820,67.31,63.63,76.31,1.99,-0.89,0.36
8830,91.19,56.81,84.5,1.9,0.83,0.78
8840,99.5,65.06,79.87,1.73,3.31,-0.3
8850,81.12,81.87,58.19,0.61,3.16,-0.91
8860,47.94,97.81,30.5,0.26,1.85,-2.1
8870,9.31,105.5,9,-0.28,0.33,-2.5
8880,-12.5,95.75,-0.25,-2.93,-2.79,-0.42
8890,-3.44,87.81,9,-3.46,-2.85,-0.14
8900,17.87,90.94,38.13,-2.58,-1.08,-0.45
8910,48.75,90.69,57.94,-3.18,0.77,-0.87
8920,65.56,93.62,60.69,-3.54,3.08,-4.26
8930,47.25,97.56,53.75,-3.53,3.75,-5.02
8940,19.31,87.12,37.5,-3.85,3.63,-5.25
8950,7.37,60.63,17.37,-5.14,1.72,-4.03
8960,3.25,28.87,10.13,-5.48,1.44,-2.15
8970,3.69,9.69,14.5,-5.61,1.67,-0.55
8980,14.88,8.69,19.56,-5.52,2.19,-0.02
8990,27.44,18.19,18.06,-5.59,2.41,-1.29
9000,27.44,30.37,10.31,-5.91,1.87,-2.39
9010,18.94,37.31,5.44,-6.03,1.48,-3.44
9020,13.75,30.75,7.31,-6.02,1.14,-4.2
9030,11.25,11.94,12.81,-5.98,0.32,-4.6
9040,4.44,-11.81,22,-5.91,0.09,-3.74
9050,-1.12,-31.19,36.13,-5.59,0.23,-2.82
9060,-2.62,-41.81,50.94,-4.75,1.21,-1.83
9070,-5.19,-44.13,61.5,-4.2,1.72,-1.6
9080,-9.19,-44.06,65.12,-3.75,2.02,-1.33
9090,-10.75,-43.69,62.88,-3.36,2.23,-1.12
9100,-6.12,-42.56,57.56,-2.68,2.43,-1.64
9110,1.5,-41.19,49.06,-2.53,2,-2.52
9120,-3.37,-43.13,39.56,-2.44,1.27,-2.51
9130,-20.56,-47.13,35,-2.08,0.71,-2.13
9140,-25.81,-54.81,34.75,-1.81,-0.48,-1.54
9150,-27.44,-60.19,39.75,-1.28,-0.69,-1.28
9160,-35.44,-60.13,48.38,-1.07,-0.64,-0.76
9170,-41.25,-53.31,57.88,-0.79,-0.25,-0.64
9180,-34.88,-43.31,63.38,0.19,1.12,-2.27
9190,-22.19,-40.13,59.25,0.54,1.42,-2.84
9200,-4.87,-45.75,46.81,0.91,1.44,-3.37
9210,20.5,-60.31,28.81,0.66,-0.55,-4.55
9220,41,-81.06,14.13,0.24,-1.79,-4.55
9230,43,-101.81,16.37,0.21,-2.42,-4.05
9240,32.88,-118.12,37.06,0.54,-2.18,-3.42
9250,18.62,-128.44,63.63,1.87,-0.42,-1.93
9260,1.75,-134.25,83.31,2.6,0.61,-0.87
9270,-9.63,-137.5,93.37,3.29,1.6,0.13
9280,-5.62,-137.37,91.37,3.72,2.24,0.86
9290,9.69,-134.12,79.19,4.27,2.62,1.39
9300,21.81,-130.37,60.94,4.09,2.13,1.56
9310,22.94,-121,42.38,4.04,1.64,1.84
9320,18.31,-108.06,28.69,3.89,0.81,2.34
9330,16.06,-93.37,20.87,3.93,0.63,2.22
9340,17,-77.69,17,4.06,0.49,2.01
9350,18,-66.31,14.06,4.22,0.44,1.85
9360,15.38,-58.88,10.19,4.36,-0.01,1.9
9370,10,-53.25,5.44,4.35,-0.36,2.02
9380,3.5,-47.5,3.31,4.48,-0.45,2.2
9390,-3,-39.19,5.06,4.66,-0.37,2.23
9400,-9.19,-28,6.81,4.88,-0.09,1.93
9410,-15.69,-16.25,7.19,5.09,0.09,1.63
9420,-21.62,-7,5.31,5.25,0.17,1.53
9430,-24.44,-2.75,0.44,5.39,0.16,1.62
9440,-20.87,-3.19,-5.5,5.54,0.11,2.38
9450,-13.06,-3.12,-11.94,5.54,0.05,2.58
9460,-5.81,2.31,-17.94,5.59,-0.13,2.64
9470,-4.37,30.62,-25.94,5.27,-0.61,2.11
9480,-4.37,30.62,-25.94,5.01,-0.74,1.51
9490,-7.87,47.25,-25.56,4.59,-0.82,1.06
9500,-10.25,60.06,-22.56,4.21,-0.53,0.76
9510,16.56,64.25,-9.88,4.03,1.62,0.03
9520,39.75,56,-12.44,4.24,3.01,-0.55
9530,50.81,42.75,-29.87,4.53,4,-1.13
9540,44.63,27.25,-58.56,4.59,4.3,-1.1
9550,31.37,21,-87.87,3.75,1.94,0.81
9560,14.44,31.25,-103.56,3.06,0,1.6
9570,-3.31,57.75,-99.37,2.06,-1.83,2.31
9580,-14.63,90.25,-75.06,1.19,-3.29,2.6
9590,-16.25,122.75,-38.13,0.38,-3.93,1.74
9600,-3.37,143.19,-0.13,0.26,-2.77,1.11
9610,19.81,152.5,26.69,0.25,-1.12,0.31
9620,34.63,148.94,37.63,0.61,2.77,-3.17
9630,32.06,136.75,28.56,0.02,4.37,-4.08
9640,16.31,117.81,0.31,0.47,4.76,-5.21
9650,-3.12,88.06,-33.94,0.3,4.49,-4.81
9660,-6.75,61.94,-67.06,-1.95,0.47,-1.13
9670,-17.12,63.81,-75,-3.46,-1.95,-0.33
9680,-35.94,85.31,-49.88,-3.75,-2.94,0.3
9690,-32.5,104.75,-14.69,-4.48,-2.6,0.61
9700,-14.31,118.62,10.31,-3.88,0.87,-2.28
9710,-7.12,122.44,14.63,-4.26,2.31,-3.96
9720,-15.63,112.81,3.69,-4.13,3.09,-5.35
9730,-22.37,86.25,-13.19,-4.8,3.15,-6.31
9740,-22.25,51.69,-28.56,-5.19,2.49,-6.15
9750,-24.56,20.75,-37.5,-5.27,2.26,-4.96
9760,-22.12,1.87,-43.88,-5.74,1.35,-3.54
9770,-21.12,-0.13,-36.44,-6.22,0.99,-2.65
9780,-21.12,4.25,-25.75,-5.83,1.75,-3.21
9790,-20.62,0.25,-24.25,-5.52,2.09,-4.25
9800,-28.06,-12.75,-27.19,-5.43,2.04,-4.72
9810,-35.69,-27.62,-27,-5.48,1.94,-4.16
9820,-39.38,-39,-23.31,-5.07,2.38,-4.16
9830,-41.44,-50.19,-22.06,-4.4,3.12,-4.23
9840,-44.38,-63.88,-31.37,-3.37,3.37,-3.57
9850,-46.5,-77.44,-45.81,-3.09,2.84,-2.96
9860,-46.31,-87.44,-57.38,-2.74,2.22,-2.37
9870,-46.31,-87.44,-57.38,-2.39,1.62,-1.93
9880,-42.38,-94.06,-63.94,-1.58,0.81,-1.26
9890,-30.25,-100.56,-70.12,-1.02,0.38,-1.12
9900,-27.62,-102.75,-71.81,-0.66,-0.18,-1.09
9910,-30,-103.81,-70.06,-0.34,-0.69,-0.84
9920,-30,-103.81,-70.06,0.14,-1.43,-0.27
9930,-32.94,-103.06,-65.06,0.46,-1.28,0
9940,-31.12,-100.06,-51.88,0.99,-0.88,0.11
9950,-23.31,-99.94,-52.75,1.34,-0.8,0.04
9960,-16.12,-100.94,-55.63,2.08,-1.26,0.2
9970,-16.12,-100.94,-55.63,2.28,-1.9,0.18
9980,-8.63,-103.19,-58.63,2.44,-2.64,0.24
9990,-5.75,-108,-48.75,2.5,-3.82,0.99
10000,-7.5,-109.5,-32.38,2.66,-3.69,1.67