timestamp,gyrox,gyroy,gyroz,accx,accy,accz
10,-2.62,-2.94,0.19,0.01,0.15,-0.36
20,-1.31,-4.62,0.25,-0.02,0.04,-0.36
30,0.19,-5.81,-0.88,-0.03,-0.06,-0.34
40,-1.81,-6.12,-0.37,-0.04,-0.03,-0.18
50,-4.37,-5,0.81,0.02,0.07,0.06
60,-4.06,-2.56,0.69,-0.05,0.05,-0.01
70,-2.5,1.12,0.44,-0.12,0.06,-0.2
80,-1.31,3.37,1.19,-0.41,0.15,-0.75
90,-1.25,3.37,2.56,-0.38,0.41,-0.94
100,-2.5,-0.06,4.87,-0.35,0.72,-0.9
110,-3.37,-6.12,5.44,-0.34,1.07,-0.69
120,-4.62,-11.13,3.19,-0.73,1.29,-0.33
130,-8.75,-8.13,-9.56,-1,1.31,-0.27
140,-8.75,-8.13,-9.56,-1.01,1.15,-0.32
150,-9.56,-5,-18.37,-1.35,0.58,-0.51
160,-9.81,-3.87,-27.37,-2.77,-0.69,0.07
170,-5.5,1.56,-23,-3.44,-1.27,0.32
180,5.19,14.44,-11.06,-4.18,-1.55,0.43
190,21.62,27.5,3.75,-4.78,-0.94,-1.52
200,35.88,31.56,16.44,-5.09,-0.37,-2.63
210,40.75,30.31,24.44,-5.09,0.23,-3.67
220,37.63,19.25,26.56,-4.86,0.75,-4.76
230,33,-3.44,22.75,-3.98,1.79,-5.87
240,31.31,-35.88,11.31,-3.45,2,-5.86
250,29.81,-69.12,-3.06,-3.54,1.77,-5.39
260,23.06,-93.31,-14.88,-3.34,1.25,-4.74
270,15,-110.87,-22.31,-2.77,-0.01,-3.05
280,11.69,-122.06,-23.62,-2.5,-0.49,-2.13
290,13.25,-126.81,-21.19,-2.06,-0.92,-1.5
300,15.56,-127.75,-14.88,-1.63,-1.33,-1.04
310,16.12,-127.19,-5.5,-0.55,-1.65,0.01
320,17,-123.25,4.5,-0.16,-1.5,0.44
330,18.87,-114.12,11.75,0.45,-1.34,0.62
340,17.75,-104.69,15.94,1.1,-1.48,0.81
350,10.13,-93.69,21.94,1.29,-1.52,0.86
360,2.06,-83,30.12,1.62,-1.46,0.84
370,-1.87,-75.5,38.25,1.96,-1.32,0.78
380,-1.31,-72.5,46.06,2.53,-0.8,0.67
390,0.44,-71.31,53,2.85,-0.4,0.49
400,0.75,-70.56,58.81,3.2,0.06,0.35
410,-0.25,-69.87,61.81,3.57,0.72,0.18
420,-2.81,-69.69,57.56,4.43,1.9,-0.05
430,-9.13,-69.31,47.38,4.76,2.16,-0.09
440,-19,-66.25,34.19,4.97,2.22,-0.02
450,-30.94,-59.63,19.94,5.1,1.41,0.15
460,-43.13,-52.19,10.06,5.07,0.77,0.27
470,-51.88,-45.19,7.5,4.96,0.18,0.51
480,-51.88,-45.19,7.5,4.99,0,0.84
490,-37.5,-33.19,18.31,5.43,0.19,0.84
500,-24.25,-29.75,24.56,5.61,0.57,0.72
510,-12.19,-26.69,30.62,5.86,1.14,0.49
520,-2.12,-25.69,34.06,6.32,1.81,0.19
530,-2.12,-25.69,34.06,7.11,2.8,-0.23
540,2.62,-26.44,31.75,7.35,2.96,-0.33
550,-15.88,-18.94,11.38,7.63,3.07,-0.41
560,-33.56,-9.06,-5.94,7.96,2.19,-0.26
570,-45,-1.06,-24.87,7.77,1.1,-0.17
580,-45,-1.06,-24.87,7.39,-0.08,-0.36
590,-46.19,4.06,-37.69,6.95,-1.11,-0.36
600,-28.69,-5.69,-21.44,7.16,-0.23,0.9
610,-1.62,-9,-4.25,7.41,0.92,0.8
620,12.25,1.62,-2.81,6.52,1.47,-0.88
630,12.25,1.62,-2.81,5.86,1.26,-3.79
640,-21.12,20.19,-7.19,5.95,-0.15,-6.24
650,-159.69,-23.94,1.31,5.65,-1.65,-4.04
660,-174.31,-70.44,11.38,4.61,-3.58,-1.07
670,-145.75,-85.94,25.12,4.2,-5.07,1.83
680,-145.75,-85.94,25.12,0.76,-7.56,4.59
690,-103,-77.12,35.38,-0.62,-7.04,6.48
700,23.44,26.81,110.75,-2.02,-4.91,5.7
710,62,100.44,143.37,-1.13,0.49,-0.38
720,32.38,151.06,152.56,-3.65,1.85,-0.38
730,32.38,151.06,152.56,-1.64,2.76,-0.57
740,-15.56,208.31,142.12,-2.28,2.48,-4.14
750,-63.81,171.25,69.75,-6.46,0.14,-4.46
760,-40.06,131.31,46.88,-7.6,-0.93,-4.15
770,2.5,94.12,40.81,-8.74,-1.3,-3.49
780,2.5,94.12,40.81,-9.1,-0.75,-2.2
790,28.5,72.94,40.81,-9.1,-0.75,-2.2
800,49.5,66.56,8.44,-9.08,-2.03,-0.89
810,52.75,61.63,-5,-9.92,-3.79,-0.61
820,48.44,60.44,4.69,-10.76,-5.08,-0.57
830,48.44,60.44,4.69,-10.76,-5.08,-0.57
840,41.5,58.88,34.13,-10.28,-4.11,-0.99
850,44,34.25,67.37,-9.51,-2.81,-2.07
860,40.69,16.44,67.44,-9.28,-4.78,-2.26
870,40.06,-6.37,77.19,-8.91,-5.64,-2.07
880,40.06,-6.37,77.19,-8.91,-5.64,-2.07
890,43,-32.44,99.56,-8.31,-5.97,-1.49
900,52.94,-65.19,147,-5.78,-5.17,0.32
910,51.19,-65.06,161.94,-5.47,-5.4,0.08
920,38.19,-56.75,176.5,-5.43,-5.72,-0.13
930,38.19,-56.75,176.5,-5.43,-5.72,-0.13
940,26.62,-49.38,198,-5.23,-5.7,-0.52
950,22.37,-48.19,223.37,-3.63,-3.69,-1.63
960,24.37,-54.31,241,-3.09,-3.33,-2.1
970,25.81,-60.94,255,-1.81,-2.9,-1.56
980,19.5,-68.19,264.87,-1.81,-2.9,-1.56
990,14.44,-76.44,274.5,-1.31,-2.82,-1.37
1000,9.81,-85.19,297.81,0.95,-0.12,-0.85
1010,-2.12,-97.06,322.94,2.46,2.77,1.38
1020,-16.87,-99.31,331.19,3.28,3.93,1.22
1030,-20.12,-77.81,323.19,3.28,3.93,1.22
1040,-22.12,-43.25,298.44,3.34,4.86,0.79
1050,-21.69,-6.69,259.37,4.72,5.53,-2.21
1060,-5.94,17.5,215.19,4.9,4.8,-3.55
1070,18.81,17.69,167.56,4.92,3.4,-4.1
1080,38.56,-2.19,117.69,4.92,3.4,-4.1
1090,52.81,-28.87,74.62,4.43,1.21,-4.08
1100,58.44,-50.88,56.56,4.67,-2.66,-3.09
1110,48.56,-67.31,61.56,5.2,-2.82,-2.08
1120,33.44,-78.44,74.56,5.98,-2.91,-0.21
1130,25.69,-81.81,84.12,5.98,-2.91,-0.21
1140,25.75,-72.69,89.69,6.41,-3.07,0.27
1150,29.94,-57,89.75,6.41,-3.79,-0.07
1160,33.13,-39.56,89.25,6.85,-2.67,-0.92
1170,28.56,-25.19,95.62,7.16,-1.45,-1.04
1180,23.69,-17.44,103.81,7.16,-1.45,-1.04
1190,27.75,-16.94,106.56,7.58,-0.06,-1.32
1200,33.63,-20,96.56,8.67,1.47,-1.76
1210,28.56,-24.5,73.69,8.6,0.93,-1.14
1220,16.69,-33.06,42.56,8.53,0.1,-0.4
1230,6.5,-41.38,11.88,8.53,0.1,-0.4
1240,2.44,-46.81,-12.19,8.25,-1.52,1.2
1250,3.44,-47.19,-27.37,8.16,-2.2,1.78
1260,6.75,-43.25,-35.31,8.13,-2.23,1.71
1270,13.5,-36.13,-38.5,8.11,-1.1,1.66
1280,20.31,-27.06,-37.69,8.11,-1.1,1.66
1290,25.37,-13.5,-33.13,8.58,0.02,1.43
1300,24.5,0.69,-40.75,8.83,0.54,1.38
1310,9.69,19.25,-65.12,7.85,-1.41,1.9
1320,-10.94,47.56,-93.69,7.31,-2,1.62
1330,-18.12,74.31,-108.44,7.31,-2,1.62
1340,-14.75,101.19,-107.06,6.69,-2,1.31
1350,-3,132.37,-96.44,6.45,1.09,-0.07
1360,18.12,171.44,-86.81,5.94,1.67,-3.88
1370,40.5,216.25,-88.31,6.03,1.57,-7.27
1380,25.69,236.25,-103.5,6.03,1.57,-7.27
1390,-32.81,214.56,-124.19,4.05,0.01,-8.16
1400,-58.38,159.31,-144.94,1.19,-1.9,-5.18
1410,-43.88,97.69,-150.94,0.5,-0.91,-2.73
1420,-26.81,56.25,-132,0.5,-0.91,-2.73
1430,-16.31,47.5,-109.81,-1.34,1.92,0.76
1440,-2.31,79.12,-98.81,-1.11,3.35,-1.31
1450,-4.62,132.69,-102.06,-1.67,4.33,-3.87
1460,-33.19,170.56,-122.94,-1.75,4.98,-4.89
1470,-44.13,175.37,-166,-5.58,-0.58,-8.2
1480,-57.5,157.31,-193.62,-7.64,-3.39,-8.06
1490,-72.19,126.87,-179.81,-9.5,-4.89,-7.05
1500,-71.62,91.87,-132.12,-10.37,-4.15,-4.42
1510,-37.19,67.31,-82.31,-9.26,0.31,-2.8
1520,-10.06,60.25,-65.5,-9.03,1.39,-2.63
1530,-17.44,67.81,-73.75,-9.42,1.34,-2.64
1540,-26,72.19,-91.5,-10.93,-1.33,-4.37
1550,-24,59.5,-98.87,-14.44,-3.32,-4.88
1560,-36.81,46.19,-86.31,-14.03,-3.68,-5.73
1570,-42.75,30.25,-50.94,-9.6,-1.39,-5.68
1580,1.5,-50.38,-38.88,-8.05,-1.2,0.14
1590,10.19,-122.81,-39.31,-9.04,-0.6,4.55
1600,-21.44,-111.62,-15.38,-7.56,2.03,6.94
1610,-7.25,-47.63,0.5,-6.1,4.47,5.12
1620,22.56,-0.5,-13.81,-4.28,6.1,-1.85
1630,11.25,17,-51.06,-4.15,4.89,-2.95
1640,-12.88,-1.44,-95.81,-4.55,2.66,-3.46
1650,-12.88,-37.56,-121.31,-5.73,-1.64,-3.17
1660,-14.13,-75.56,-113.12,-5.4,-1.55,-1.38
1670,-18.69,-99.62,-81,-4.29,0,-0.07
1680,-10.88,-106,-51.13,-3.12,1.55,-0.39
1690,-16.75,-101,-40.44,-1.13,4.68,0.47
1700,-32,-91.94,-46,-0.17,6,0.37
1710,-36.94,-78.69,-61.44,1.24,7.28,0.03
1720,-27.25,-71.44,-95.25,2.12,7.38,-0.81
1730,-11.88,-75.12,-146.81,2.41,3.13,-2.58
1740,-9.94,-85.06,-195.87,2.16,0.34,-2.84
1750,-19.94,-98.19,-224.69,1.73,-2.2,-2.5
1760,-29.69,-111.37,-229.69,1.48,-3.95,-1.85
1770,-27.5,-122.75,-210.5,1.81,-4.96,-0.09
1780,-14.44,-132.44,-178.94,2.29,-4.52,0.34
1790,-0.37,-137.56,-146.19,2.85,-3.73,0.99
1800,9.56,-133.25,-120.37,3.92,-1.38,2.78
1810,25.81,-117.5,-104.5,4.15,-0.34,2.47
1820,38.06,-89.75,-100,4.58,0.53,1.82
1830,29.5,-52.63,-106.12,4.71,0.65,0.93
1840,20.06,-20.75,-121.37,4.33,-1.2,-1.75
1850,18.06,-1.87,-133.31,4.1,-2.02,-2.69
1860,12.81,-3.12,-134.94,3.9,-2.79,-3.27
1870,13.13,-24.25,-126,3.65,-3.63,-4.01
1880,10.63,-51.63,-108.87,3.19,-5.16,-3.41
1890,-5.19,-77.31,-83.19,3.09,-5.12,-2.05
1900,-16.19,-95.94,-50.38,3.23,-4.49,-0.38
1910,-12.94,-95.19,-14.56,4.14,-2.02,1.45
1920,-7.37,-78.69,10.13,4.63,-0.81,1.5
1930,-4.19,-51.63,17.69,4.82,-0.33,0.89
1940,-1.12,-24.56,9.94,4.67,-0.46,-0.07
1950,-2.31,-8.25,0.25,4.08,-1.2,-1.06
1960,-5.56,-2.44,-2.31,3.86,-1.21,-1.25
1970,-5,-2.31,2.19,3.87,-0.94,-1.33
1980,-5.81,-0.81,7.37,3.93,-0.78,-1.31
1990,-9.63,2.5,9.13,3.56,-0.63,-1
2000,-11.88,7.37,11.06,3.53,-0.51,-1.1
2010,-11.25,12.25,13.56,3.58,-0.5,-1.07
2020,-10,14.94,14.38,3.48,-0.66,-0.73
2030,-5,16.44,13.63,2.98,-0.82,0.06
2040,20.19,25.12,24.12,2.88,-0.25,0.18
2050,20.19,25.12,24.12,2.98,0.43,-0.18
2060,27.19,34.13,26.87,2.82,1.21,-1.01
2070,12.88,51.75,17.31,2.58,1.06,-1.53
2080,-2.06,58.56,10.88,2.3,0.52,-2.2
2090,-17.75,60.75,7.5,2.08,-0.33,-2.6
2100,-22.75,54.19,8.81,2.06,-1.61,-2.45
2110,-7.62,40.5,11.63,2.37,-1.74,-2.09
2120,22.94,23,12.56,2.98,-1.54,-1.74
2130,54.31,10.06,5.37,3.64,-1.18,-1.21
2140,80.37,3.94,-9.06,4.43,-1.4,-0.18
2150,99.94,1.5,-22.44,4.86,-1.6,0.34
2160,106.5,-1.94,-34.13,5.12,-1.93,1.18
2170,100.69,2.19,-39.88,4.03,-3.71,2.31
2180,81.69,23.06,-31.81,3.22,-4.52,2.08
2190,55.44,72.12,-11.44,2.26,-5.24,2.35
2200,43.31,123.75,20.75,1.69,-5.65,1.72
2210,37,166.31,59.25,0.54,-4.22,0.43
2220,47.06,171,100.81,0.45,-2.56,-0.94
2230,61.69,151.81,133.31,0.54,-0.12,-2.87
2240,59.56,119.19,141.44,1.41,2.69,-2.95
2250,61.94,94.62,118.75,0.22,5.67,-1.67
2260,52,89.12,84.31,-1.25,5.38,-1.82
2270,16.94,103.56,60.25,-2.41,4.67,-1.8
2280,-9.38,114.5,49.19,-2.95,4.33,-1.34
2290,-9,115.37,33.81,-3.83,3.07,-2.19
2300,-8.81,110.06,16.62,-4.82,1.16,-3.15
2310,-18.31,96.94,17.87,-6.12,-0.72,-3.25
2320,-14.31,80.94,43.88,-6.95,-0.14,-2.5
2330,5,64.44,69.56,-6.21,1.68,-2.96
2340,8.44,47.69,72.25,-5.77,2.85,-3.35
2350,-8.69,31.75,58.94,-5.62,3.29,-2.78
2360,-20.44,18.5,40.38,-6.08,1.99,-0.7
2370,-20,11.13,29.94,-6.47,0.91,-0.38
2380,-19.75,7.69,33.13,-6.78,0.15,-0.41
2390,-16.31,3.37,44.88,-6.69,0.19,-0.19
2400,-4.44,-3.94,50.38,-5.41,1.99,-0.72
2410,0,-11.81,40.19,-5.01,1.92,-1.02
2420,-3.25,-21.44,24.56,-4.98,1.03,-0.78
2430,-2.94,-30.75,17.44,-5.18,-1.32,0.04
2440,0.56,-37,22.5,-5.13,-2.11,0.34
2450,-0.5,-39.56,35.25,-4.94,-2.57,0.57
2460,-8.69,-36.81,50.56,-4.82,-2.79,0.93
2470,-17.56,-27.25,66.5,-4.53,-2.5,1.54
2480,-21.62,-11.69,79.19,-3.89,-2.34,0.88
2490,-26.44,-2.81,84.06,-3.91,-2.4,0.19
2500,-35.5,-3.5,88.19,-3.48,-2.75,-0.24
2510,-38.13,-12,91.62,-2.91,-3.08,1.14
2520,-29.81,-15.56,94.87,-2.95,-3.62,1.63
2530,-24.75,-6.25,105.31,-2.89,-4.09,1.59
2540,-32.38,11.94,124.69,-2.61,-4.32,1.45
2550,-43.81,27.44,146.19,-1.16,-4.15,1.65
2560,-49,37.44,166.31,-0.61,-3.5,2.05
2570,-46.06,57.44,180.62,0,-2.55,2.01
2580,-36.75,82.94,183.81,0.98,-0.36,-0.75
2590,-27.44,101.94,176.31,0.94,0.34,-3.19
2600,-23.81,101.81,165.87,1.14,1.16,-5.66
2610,-21.31,78.44,147.75,1.86,2.05,-7.68
2620,-12.94,22.62,116.06,2.93,1.99,-8.7
2630,-5.81,-46.75,84.56,3.19,1.22,-6.65
2640,-0.94,-101.94,61.94,3.56,0.32,-3.9
2650,10.06,-131.12,51.75,3.73,-0.22,-0.94
2660,29.56,-139.25,50.69,4.54,-0.6,2.32
2670,47.19,-125.69,52.69,4.85,-0.62,3.04
2680,50.63,-89.06,57.5,4.88,-0.22,3.24
2690,41.88,-46.75,60,5.44,0.68,3.53
2700,41.81,-6.69,54.31,5.91,2.34,1.66
2710,49.88,16.37,43.31,5.99,2.61,0
2720,45.94,16,31.94,5.83,2.8,-1.12
2730,32.69,7.25,25.25,6.35,4.43,-1.5
2740,26.5,-3.37,15.5,7.23,5.21,-1.56
2750,25.81,-19.75,-9.31,7.81,5.11,-1.48
2760,17.06,-36.75,-42.63,7.76,3.68,-0.8
2770,1.75,-44.13,-63.19,6.8,0.26,2.09
2780,-2.5,-34.44,-64.75,6.45,-0.63,2.74
2790,-0.94,-8.06,-53.19,6.35,-0.99,2.64
2800,-5.94,21.87,-38.88,6.36,-1.05,2.07
2810,-15.81,43.31,-27.37,6.29,-0.97,0.61
2820,-23.5,53.56,-18.19,6.06,-0.61,0.65
2830,-17.87,55.56,-8.13,6.47,0.5,0.98
2840,1.94,53.31,-9.25,6.97,1.92,1.55
2850,16.62,59.69,-26,6.65,1.28,1.42
2860,11.81,79.69,-47.56,6.05,-0.62,0.68
2870,-8.13,107.87,-70.06,4.96,-3.71,-0.18
2880,-47.44,145.19,-77.25,0.72,-10.62,-3.88
2890,-100.56,152.81,-41.56,-0.25,-12.02,-3.58
2900,-90.19,119.87,44.06,-0.33,-10.36,-3.45
2910,-8.5,65.12,132.62,1.36,-5.66,-3.87
2920,59.5,11.81,168.5,4.34,3.16,-2.18
2930,82.75,-18.37,145.37,4.27,4.84,0.15
2940,94,-25.19,84.19,3.81,5.07,1.84
2950,97.94,-5.56,27.56,2.13,4.06,3.18
2960,81.19,43.13,1.94,-0.08,1.96,2.46
2970,48.63,115.94,1.87,-1.04,1.77,0.89
2980,21.62,178.31,9.31,-1.92,1.77,-2.33
2990,21.62,178.31,9.31,-2.15,3.92,-7.39
3000,8.81,188.19,23.44,-1.94,5.65,-8.96
3010,29.81,111.5,26.37,-1.47,7.26,-9.03
3020,29.19,57,-5.87,-1.38,7.69,-7.64
3030,24.94,18.56,-50.13,-3.1,4.05,-3.83
3040,24.94,18.56,-50.13,-4.09,2.27,-2.8
3050,18.69,7,-75.94,-4.67,1.38,-2.68
3060,7.12,20.12,-57.88,-5.08,1.14,-3.14
3070,-4.81,20.87,-37.25,-5.54,2.32,-2.95
3080,-11.5,16.12,-19.5,-5.6,3.91,-2.48
3090,-11.5,16.12,-19.5,-5.31,5.84,-2.38
3100,-12.19,12.88,-9.38,-4.71,8.79,-3.03
3110,-9.38,10.5,-39.25,-4.37,9.13,-3.9
3120,-10.63,-0.94,-79.69,-4.48,8.27,-4.12
3130,-19,-21.12,-124.75,-5.09,6.16,-3.68
3140,-19,-21.12,-124.75,-7.37,0.62,-3.4
3150,-29,-36.56,-156.44,-8.32,-1.24,-3.76
3160,-55.06,-50.13,-142.69,-8.91,-2.28,-4.14
3170,-64.25,-59.88,-108.56,-8.91,-2.18,-4.42
3180,-66.31,-76.31,-73.81,-7.25,0.48,-4.67
3190,-66.31,-76.31,-73.81,-6.34,1.39,-4.44
3200,-69.62,-96.5,-57.31,-5.57,1.6,-4.12
3210,-78.25,-129.75,-67.5,-4.78,1.39,-3.76
3220,-79.56,-142.75,-77.31,-3.06,0.03,-2.59
3230,-80.5,-153.31,-85.94,-2.33,-0.68,-2.2
3240,-80.5,-153.31,-85.94,-2.33,-0.68,-2.2
3250,-84.31,-161,-88.75,-1.67,-1.17,-1.6
3260,-90.19,-156.87,-88.19,0.76,-1.93,-0.01
3270,-89.69,-148.69,-97,0.99,-3.08,-0.21
3280,-97.25,-140.62,-99.44,1.09,-4.13,-0.37
3290,-97.25,-140.62,-99.44,1.09,-4.13,-0.37
3300,-103.37,-134.37,-90.62,1.75,-4.71,0.37
3310,-78.5,-125.37,-58.25,3.32,-3.33,0.29
3320,-63.06,-119.44,-55.19,3.93,-2.87,0.03
3330,-51.19,-113.81,-60.81,4.61,-3,-0.11
3340,-51.19,-113.81,-60.81,4.61,-3,-0.11
3350,-37.38,-112.12,-69.06,4.72,-3.61,-0.54
3360,-16.87,-123,-68.12,5.33,-4.25,-0.49
3370,-15.75,-130.75,-58.44,5.5,-4.39,-0.23
3380,-22.94,-134.69,-45.94,5.54,-4.67,0.42
3390,-22.94,-134.69,-45.94,5.54,-4.67,0.42
3400,-35.13,-125.31,-27.75,5.5,-4.69,1.04
3410,-49.38,-92.87,15.75,6.79,-1.95,2.48
3420,-49.38,-92.87,15.75,7.12,-0.97,2.25
3430,-33.19,-69.5,23.25,7.54,0.04,1.72
3440,-11.81,-43.56,19.31,7.54,0.04,1.72
3450,7.69,-21.81,5.5,7.96,0.85,0.04
3460,25.37,-8.56,-16.62,7.56,-0.17,-1.25
3470,34.06,-4.5,-36.5,7.15,-0.99,-1.16
3480,30.69,-5,-47.13,6.43,-2.6,-1.32
3490,17.81,1.37,-47.38,6.43,-2.6,-1.32
3500,0.56,13.38,-38.88,6.09,-3.01,-1.43
3510,-11.38,26.81,-23.31,6.29,-1.35,-1.71
3520,-13.06,39.31,-5.12,6.38,-0.7,-2.45
3530,-2.94,46.69,6.81,6.21,-0.15,-2.52
3540,8.81,42.38,9.75,6.21,-0.15,-2.52
3550,18.81,27.44,7.44,6.36,0.4,-2.06
3560,31.75,4.06,0.19,6.45,0.19,0.79
3570,33.75,-12,-11,6.46,-0.28,1.54
3580,18.94,-10.94,-21.94,6.25,-0.77,1.98
3590,2,-1.31,-33.69,6.25,-0.77,1.98
3600,-6.19,29.25,-46.19,5.72,-4.18,0.77
3610,-8.88,63.75,-61.94,2.98,-8.93,1.2
3620,-12.75,84.37,-72.56,0.14,-9.26,2.07
3630,-5.62,98.31,-52.13,-0.29,-6.91,0.73
3640,35.44,107.44,6.5,-0.29,-6.91,0.73
3650,91.19,118.37,69.87,0.08,-3.6,-0.27
3660,113.37,137.87,111.69,-1.4,1.71,-2.48
3670,95.81,154.94,119.94,-1.72,1.52,-3.1
3680,63.13,170.87,107.31,-2.59,1.2,-3.52
3690,53.75,173.69,87.56,-2.59,1.2,-3.52
3700,66.87,157.87,70.12,-4.71,0.8,-3.15
3710,88.06,146.12,72.87,-6.35,4.99,-5.37
3720,101.06,144.94,88.25,-6.31,6.22,-5.87
3730,98.06,135.81,92.44,-6.15,6.78,-6.13
3740,87.44,120.06,74.62,-6.15,6.78,-6.13
3750,77.94,92.75,39.81,-7.3,4.41,-5.01
3760,61.19,63.63,4.06,-9.19,-0.11,-2.05
3770,44.31,44.75,-11.44,-9.02,-0.46,-1.76
3780,39.44,36.94,3.44,-8.45,0.5,-2.29
3790,37.75,37.13,33.75,-8.45,0.5,-2.29
3800,29.37,38.19,59.19,-7.87,1.3,-3.05
3810,17.44,32.75,70.56,-6.84,0.81,-2.65
3820,6.44,15.94,71.62,-6.69,0.17,-1.22
3830,-4.75,-6.69,68.62,-6.25,0.25,-0.28
3840,-12.06,-23.87,72.87,-6.25,0.25,-0.28
3850,-9.5,-32.06,83.69,-5.57,0.71,0.13
3860,-7.81,-32.75,89.06,-4.51,-1.01,0.97
3870,-14.81,-30.25,84.19,-4.93,-2.34,1.07
3880,-23.12,-26.87,76.56,-5.48,-4.19,0.25
3890,-23.37,-23.12,79.37,-5.48,-4.19,0.25
3900,-21.12,-22.56,92.37,-5.83,-4.57,0.41
3910,-15.5,-26.94,112.19,-5.8,-3.72,-1.06
3920,1.19,-29.31,138.19,-5.8,-3.72,-1.06
3930,9,-24.62,171.25,-3.03,1.42,-2.67
3940,4.25,-19.87,197.06,-2,3.3,-3.38
3950,23.69,-49.13,157.25,-1.77,3.8,-3.71
3960,23.69,-49.13,157.25,-1.45,3.78,-3.64
3970,16.62,-62.69,127.62,-0.8,3.22,-1.47
3980,8.5,-70.5,70.94,-0.76,1.64,-1.19
3990,2.56,-64.5,59.56,-0.91,-0.16,-1.22
4000,-10.25,-55.25,69.37,-0.7,-1.33,-1.16
4010,-13.38,-44.44,87.94,0.75,-0.96,-0.72
4020,1,-36.13,101.19,1.89,0.2,-1.38
4030,15.31,-34.38,96.69,2.91,1.24,-2.5
4040,18.81,-42.88,78.69,4.43,1.78,-4
4050,15.19,-60.63,59.25,4.69,1.48,-3.73
4060,11.31,-75.81,45.44,5,1.27,-3.15
4070,8.38,-85.94,36.5,5.48,1.25,-2.82
4080,2.12,-94.06,26.81,6.53,1.03,-1.85
4090,-4.06,-103.75,16.44,6.86,0.66,-1
4100,-5.31,-107.81,9.38,7.01,0.33,-0.07
4110,2.44,-97.62,5.25,7.42,0.52,1.11
4120,17.12,-75.75,-2.44,8.21,1.33,1.45
4130,23.87,-56.44,-17.31,8.38,1.19,0.73
4140,15.56,-42.75,-32.13,8.45,0.57,0.25
4150,3.31,-33.5,-38,8.3,-0.08,0.18
4160,-5.44,-27.31,-36.69,8.52,-0.49,-0.19
4170,-17.75,-24.06,-36.13,8.74,-0.55,-0.08
4180,-27.75,-19.5,-37.94,8.82,-0.57,0.68
4190,-24.37,-10.69,-41.25,8.94,-0.85,1.25
4200,-16.19,-0.75,-45,8.87,-1.16,1.09
4210,-11.75,9.94,-47.5,8.77,-1.49,1.04
4220,-6.56,20.31,-48.38,8.68,-1.72,0.9
4230,1.44,28.12,-45.19,8.24,-2.17,0.36
4240,6.19,33.88,-33.44,8.29,-1.4,-0.18
4250,0.37,35.63,-22.69,8.66,-0.04,-0.45
4260,-14.5,34.19,-23.81,9.11,1.37,-0.3
4270,-27.62,32.88,-40.25,9.58,2.36,1.65
4280,-25.37,40,-62.25,9.48,2.22,2.44
4290,-12.25,59.69,-84.75,9.16,1.8,2.71
4300,7.5,85.31,-103.56,7.66,0.59,1.6
4310,29.25,113.87,-119.25,6.39,-0.22,0.11
4320,34.56,137.5,-127.62,4.78,-1.2,-1.23
4330,20.87,152.37,-122.62,3.17,-1.82,-1.86
4340,4.37,162.12,-106.44,-0.58,-1.88,-2.7
4350,-16.87,183,-87,-1.07,-1.26,-4.5
4360,-40.94,189.75,-70.5,-0.75,0.29,-4.84
4370,-45.25,182.94,-77.94,-2.46,0.88,-4.58
4380,-49.69,192.06,-79.75,-6.67,0,-5.95
4390,-43.06,208.25,-61.56,-7.06,2.77,-6.52
4400,7.37,204.56,-67.75,-7.12,5.26,-8.96
4410,44.56,166.94,-106.06,-7.03,6.22,-12.53
4420,28.5,103.62,-154.44,-9.17,3.23,-14.04
4430,0.81,29.37,-187.5,-12.44,0.49,-11.06
4440,-16.94,-2.44,-193.56,-21.09,-2.64,-8.07
4450,-43.69,69.06,-161.81,-17.38,-2.66,-13.49
4460,35.63,10.38,-136.37,-7.69,-1.83,-16.38
4470,145.94,-260.94,-128.25,-3.33,-2.27,-13.87
4480,62.25,-484.69,-109.06,-0.21,-1.92,-4.52
4490,-91.94,-571.12,-85.87,-8.1,-5.01,19.58
4500,-202.94,-325.44,-26.44,-6.77,-3.38,26.61
4510,-200.69,-83.06,20.62,-6,0.48,25.4
4520,-61.25,107,53.56,-6,4.66,15.9
4530,1.75,237.94,52,-0.57,9.06,3.44
4540,10.38,330.06,-22.37,-2.76,8.95,-7.16
4550,-19.12,248,-105,-0.35,7.24,-11.25
4560,-19.62,113.5,-169.56,-2.54,1.2,-16.32
4570,23.87,-54.31,-194.37,-2.89,-1.59,-15.5
4580,3,-204.5,-185.62,-2.52,-2.41,-11.4
4590,-52.06,-293.87,-160,-1.68,-1.78,-5.38
4600,-60.06,-318.5,-136.81,-0.33,0.27,4.7
4610,-32.75,-302.5,-123,0.53,1.66,6.17
4620,-3.06,-244.94,-117.62,1.86,2.85,5.33
4630,8.25,-190.75,-131.69,3.25,3.4,4.31
4640,-5.12,-125.94,-161.75,3.66,0.72,2.64
4650,-31.19,-79.62,-187.44,3.45,-1.32,2.04
4660,-42.63,-42.56,-199.25,2.87,-3.19,1.39
4670,-47.88,-7.37,-191.87,2.34,-4.65,0.78
4680,-46.56,19.19,-162.31,2,-5.49,0.26
4690,-6.44,13.25,-124.87,2.86,-5.27,-1.83
4700,35.94,-9.75,-93.56,2.67,-5.34,-5.24
4710,26.25,-48.38,-60.94,4.14,-4.43,-5.51
4720,5.5,-89,-35,4.56,-4.11,-3.5
4730,11.25,-118.12,-16.12,4.87,-4.06,-2.17
4740,18.5,-130.62,4.81,5.13,-3.96,-1.34
4750,16.12,-127.94,30,6.19,-2.33,0.91
4760,20.06,-107.56,52,6.97,-1.12,1.04
4770,27.87,-85.44,64.44,7.5,0.01,0.6
4780,23.75,-65.37,65.56,8.01,0.9,0.06
4790,8.63,-47.75,56.56,8.77,1.99,0.33
4800,2.19,-35.94,39,9.01,1.81,0.65
4810,12.13,-29.81,19.44,8.81,1.3,0.9
4820,28.19,-25.25,6.81,8.61,0.63,0.72
4830,38.69,-21.62,0.69,8.47,0.45,0.52
4840,37.31,-11.75,-4.69,7.86,-0.01,0.78
4850,32.44,14.81,-8.5,6.99,-0.59,0.95
4860,29.37,54.13,-5.56,5.76,-1.48,-1.13
4870,27.25,87.56,3,5.34,-1.67,-1.85
4880,25.25,111.44,14.81,4.93,-1.54,-2.01
4890,24.44,115.75,28.81,4.72,-1.09,-3.15
4900,20.25,102.37,40.19,4.7,0.2,-4.27
4910,10.38,88.94,42.81,4.49,0.31,-4.11
4920,0.94,81.25,35.69,4.05,-0.35,-3.89
4930,-4.94,76.37,28.81,3.35,-1.12,-2.98
4940,5.5,76.5,28.37,2.36,-0.38,-1.35
4950,32.5,91,24.31,2.21,0.24,-2.62
4960,49.5,107.25,10.25,2.05,0.28,-3.98
4970,50.25,102.44,-10.31,0.88,-2.06,-4.84
4980,52.56,75.37,-21.62,-0.2,-3.27,-3.82
4990,53.06,49.31,-13.13,-1.37,-3.82,-2.3
5000,48.5,32.44,10.5,-1.35,-3.4,-0.54
5010,49.81,28.75,37.44,-0.97,-0.55,2.84
5020,53.56,43.5,43.25,-2.41,-0.56,3.52
5030,38.44,81.5,41.19,-2.14,-0.4,3.29
5040,19.62,125.62,36.56,-2.4,-0.55,2.52
5050,16.12,149.56,27.56,-5.43,-3.05,0.68
5060,17,167.69,35.19,-6.69,-2.79,0.24
5070,30.44,177.44,60.69,-7.09,-1.22,-1.49
5080,53,164.81,77.12,-7.72,0.58,-6.68
5090,51.13,131.87,80.37,-7.91,0.89,-6.92
5100,28.37,78.56,79.94,-7.98,0.89,-4.79
5110,16.12,24,78.81,-7.87,0.7,-1.75
5120,20.37,-9.75,79.62,-7.57,-0.07,1.95
5130,21.19,-25.44,80.75,-7.65,-1.24,3.37
5140,11.13,-11.38,83.81,-8.24,-3.07,3.99
5150,-1.87,18.87,100.69,-8.74,-4.75,4.05
5160,-2.75,48.69,142.75,-8.62,-3.01,1.76
5170,9,76.25,197.62,-7.69,-0.14,-0.52
5180,20.37,85.69,240.37,-6.25,2.71,-2.81
5190,28.69,69,256.31,-5.33,4.96,-4.76
5200,30.44,33.75,246.25,-3.4,8.72,-6.26
5210,20.62,-13.13,210.75,-2.46,9.32,-5.17
5220,0.56,-57.31,157.44,-2.05,8.62,-2.63
5230,-19.37,-80.75,97.81,-3.02,3.34,1.82
5240,-37.63,-72.94,57.38,-3.73,0.43,2.8
5250,-52.5,-40.75,49.88,-4.21,-1.73,2.78
5260,-52.44,3.44,74,-4.1,-2.69,1.36
5270,-44.81,38.19,113,-2.31,-0.81,-3.27
5280,-42.81,40.88,145.31,-1.47,0.87,-4.36
5290,-44.75,22.81,162.06,-0.2,2.85,-4.57
5300,-36.5,-4.25,156.87,0.61,4.33,-4.57
5310,-21.56,-31.75,131.25,2.08,5.63,-4.62
5320,-16.5,-53.38,93.94,2.45,4.73,-4.41
5330,-23.5,-70.62,50.44,2.48,2.83,-3.59
5340,-28.31,-85.75,17.5,2.38,0.88,-2.48
5350,-21.87,-96.25,4,2.85,-1.49,-0.46
5360,-8.69,-101.19,5.56,3.12,-2.12,0.01
5370,3.5,-98.25,13.56,3.48,-2.4,0.28
5380,12.25,-86.69,27.06,4.11,-1.53,-0.05
5390,17.44,-68.94,41.06,4.7,-0.85,-1.01
5400,15.13,-54.75,48.5,5.05,-0.43,-1.76
5410,5.31,-50.81,50.38,5.31,-0.06,-2.02
5420,-3.87,-53.31,52.06,6.41,1.83,-1.5
5430,-4.37,-58.25,50.25,7,2.64,-1.3
5440,-1,-61.81,36.63,7.49,3.14,-1.07
5450,-1,-61.81,36.63,7.85,3.12,-0.83
5460,2,-63.13,12.94,7.83,1.26,-0.18
5470,-0.31,-59.25,-42.31,7.61,-0.13,0.21
5480,-3.12,-54.88,-57.38,7.37,-1.37,0.35
5490,-3.19,-49.31,-58.94,7.11,-2.7,0.73
5500,-3.19,-49.31,-58.94,7.16,-2.67,1.02
5510,-3.06,-44.44,-49.56,7.27,-2.56,1.11
5520,-7.37,-15.75,-23.87,7.27,-2.49,1.23
5530,-14.56,4.62,-14.69,7.5,-1.98,1.35
5540,-12.06,20.69,-7.62,7.54,-1.67,1.29
5550,-12.06,20.69,-7.62,7.47,-1.31,1.62
5560,-4.25,30.31,-4.37,7.44,-1.02,1.95
5570,5.06,52.88,-7.56,7.02,-1.48,1.62
5580,4.94,72,-15.75,6.4,-2.5,1.29
5590,-2.06,92.56,-20.44,5.75,-3.46,1.01
5600,-2.06,92.56,-20.44,5.2,-4.07,0.88
5610,-6.75,110.19,-14.75,4.71,-3.02,0.59
5620,10.13,136.44,21.5,4.67,-1.95,0.21
5630,25.5,150.06,31.94,4.69,-1.24,-0.42
5640,36.69,162.5,29.81,2.96,-2.63,-2.2
5650,36.69,162.5,29.81,1.49,-3.65,-2.58
5660,34.56,170,24.62,1.49,-3.65,-2.58
5670,-3.5,198.19,76.31,-1.58,-2.46,-4.45
5680,-12.38,207.94,134.06,-1.76,5.67,-6.78
5690,-4,200.31,181.62,0.55,10.46,-7.73
5700,-4,200.31,181.62,0.55,10.46,-7.73
5710,17.44,171,186.87,0.9,16.98,-5.99
5720,71.81,70.69,12.44,-1.59,10.07,-5.39
5730,57.94,40.88,-112.31,-4.68,3.97,-3.52
5740,5.62,32.38,-178.81,-7.1,-0.34,-1.67
5750,5.62,32.38,-178.81,-7.1,-0.34,-1.67
5760,-30.5,46.56,-165.56,-9.63,-1.33,-0.81
5770,-26.5,99.69,-27.87,-7.65,5.26,-4.53
5780,-10.19,99.87,-1.31,-6.78,7.79,-6.21
5790,-14.94,78.19,-15.69,-6.39,8.98,-6.56
5800,-14.94,78.19,-15.69,-6.39,8.98,-6.56
5810,-22.31,-4.94,-107.56,-6.85,6.92,-6.02
5820,-29.5,-41.38,-137.87,-8.24,1.39,-3.6
5830,-55.88,-57.44,-109.25,-8.52,-1.05,-2.22
5840,-60.44,-52.94,-72.12,-7.71,-0.6,-2.4
5850,-60.44,-52.94,-72.12,-7.71,-0.6,-2.4
5860,-58.19,-56.88,-45.19,-6.42,0.78,-2.78
5870,-54.56,-80.81,-52.69,-3.14,3.86,-2.57
5880,-54.56,-80.81,-52.69,-2.66,3.25,-2.34
5890,-55.5,-91.5,-75.25,-2.46,1.9,-2.13
5900,-60.13,-100.5,-92.06,-2.46,1.9,-2.13
5910,-66.19,-109,-96.06,-1.94,-0.08,-1.18
5920,-70.87,-114.25,-91.62,-1.47,-0.67,0.01
5930,-71.37,-113.37,-81,-0.9,-0.05,0.49
5940,-63.38,-107.81,-68,0.6,1.55,0.03
5950,-55,-101.12,-64.5,0.6,1.55,0.03
5960,-56.44,-96.87,-72.12,1.21,1.8,-0.22
5970,-60.25,-93.94,-85.69,1.46,0.47,-0.38
5980,-61.75,-91.19,-95.56,1.57,-1.16,-0.57
5990,-59.81,-87.81,-99.25,1.67,-1.72,-0.87
6000,-53.25,-85.62,-98.37,1.67,-1.72,-0.87
6010,-43.06,-86.25,-93.31,1.8,-2.03,-1.23
6020,-32.63,-89.37,-87.31,2.76,-2.12,-1.58
6030,-24.81,-94.19,-84.06,3.1,-2.18,-1.5
6040,-21.81,-98.31,-83.56,3.32,-2.51,-1.53
6050,-23.31,-101.56,-84.25,3.32,-2.51,-1.53
6060,-29.44,-104.75,-81.19,3.33,-3.59,-1.4
6070,-38.5,-104.37,-69.37,3.41,-3.84,-1.21
6080,-48.44,-100.81,-50.38,3.61,-3.5,-1.01
6090,-57.81,-96.12,-30.87,4.37,-2.51,-0.91
6100,-68.62,-90.31,-16.31,4.37,-2.51,-0.91
6110,-76.69,-87.5,-9.25,4.9,-1.88,-0.43
6120,-72.5,-88.94,-10.94,5.47,-1.38,0.47
6130,-60.06,-89.69,-17.87,5.6,-1.81,1.13
6140,-45.88,-88.06,-25.56,5.5,-2.03,1.25
6150,-32.44,-82.5,-28.94,5.5,-2.03,1.25
6160,-22.62,-65.06,-27.44,5.45,-2.03,1.51
6170,-18.69,-37.56,-26.19,5,-2.39,0.47
6180,-15.31,-11,-23.12,5.02,-2.1,-0.63
6190,-13.38,8.19,-17.44,5.18,-1.9,-1.3
6200,-18.25,18.87,-17.25,5.18,-1.9,-1.3
6210,-24.5,25.31,-24.44,4.96,-3.06,-1.85
6220,-27.12,21.44,-29.5,4.72,-4.17,-1.03
6230,-19.12,10.75,-26.56,4.82,-4.12,-0.1
6240,7.81,0.62,-19.56,5.03,-3.77,0.75
6250,37.75,3.81,-14.81,5.03,-3.77,0.75
6260,50.5,19.81,-12.5,5.1,-3.75,0.55
6270,47.38,38.94,-10.88,4.88,-4.22,0.24
6280,43.88,54.56,-6.44,4.92,-4.03,0.14
6290,44.44,66.5,1.06,5.33,-3.6,0.12
6300,45.44,73.94,8.38,5.33,-3.6,0.12
6310,46.5,74.62,9.5,5.78,-3.34,0.76
6320,51.44,73,7.81,5.51,-3.6,2.67
6330,59.94,73.62,7.12,4.75,-4.12,2.9
6340,64.87,89.56,9.19,3.19,-4.87,3.32
6350,67.75,120.37,25.25,3.19,-4.87,3.32
6360,63.44,182.69,65.06,1.36,-3.79,1.71
6370,43.19,259.12,110.56,0.96,-2.44,0.61
6380,21.19,340,147.06,1.02,-0.77,-0.05
6390,17.31,329.69,170.75,1.15,0.58,-5.01
6400,35.69,261.31,179.44,0.97,5.36,-8.2
6410,72.87,184.44,164.62,0.2,7.45,-8.2
6420,87.25,123.06,123.75,0.57,9.17,-6.55
6430,92.5,89,52.56,-1.95,6.5,-4.04
6440,81.62,85.19,-8.31,-3.82,3.17,-4.33
6450,43.94,91.19,-27.69,-5.56,0.25,-3.77
6460,17,95.19,-9.38,-6.55,-1.27,-2.91
6470,16,93.5,23.69,-7.14,-2.03,-3.38
6480,19.12,84.06,57.25,-7.05,-1.05,-3.05
6490,25.06,71.62,80.25,-6.77,0.31,-2.39
6500,36.38,62.19,88,-6.72,1.42,-1.93
6510,43.5,60,86.56,-8.94,2.08,-2.88
6520,20.25,76.87,84.25,-16.25,-1.43,-6.54
6530,-81.19,146.31,116.5,-12.77,-2.72,-10.25
6540,-91.81,92.25,177.69,-3.46,6.45,-6.61
6550,38.94,-65.37,207.25,-1.1,11.42,-3.1
6560,133.37,-160,156.81,-2.55,12.89,-0.43
6570,90,-123,63.63,-2.33,11.27,0.6
6580,16.87,-63.44,-15.31,-4.97,1.48,0.03
6590,-15.31,-39.81,-32.13,-5.62,-1.64,-0.34
6600,-23.56,-41.81,-1.62,-5.97,-3.03,0.38
6610,-24.87,-38.44,49.13,-5.59,-2.37,2.03
6620,-10.38,-15.75,85.06,-3.84,0.59,-0.11
6630,3.87,3.69,93.31,-3.77,0.49,-3.13
6640,-2.69,-1.12,92.12,-3.63,0.06,-5.12
6650,-17.87,-29.94,95.94,-3.41,-0.17,-5.17
6660,-18.12,-63.88,105,-2.65,0.39,-2.53
6670,-13.88,-83.37,116.44,-2,1.29,-1.13
6680,-15.75,-79.62,123,-1.55,2.28,-0.39
6690,-19.06,-60.38,120.69,-0.49,4.13,-2.2
6700,-22.31,-46.06,109.12,0.08,4.26,-3.74
6710,-29.31,-51.5,86.94,0.28,3.6,-4.49
6720,-41.25,-70.12,63.69,0.39,2.36,-4.07
6730,-50,-86.19,49.25,0.23,0.12,-1.41
6740,-46.56,-89.56,47.44,0.57,-0.23,-1.26
6750,-41.38,-84.75,54.81,1,-0.32,-1.39
6760,-42.88,-78.94,63.81,1.66,-0.14,-1.37
6770,-44.81,-74.37,66.69,2.64,0.27,-0.73
6780,-42.63,-68.06,65.19,3.01,0.27,-0.72
6790,-41,-60,61.81,3.29,0.24,-0.78
6800,-39.44,-54.38,59.5,4.28,0.62,-1.01
6810,-32.81,-55.63,55.06,4.73,0.71,-1.15
6820,-25.75,-63.75,45.81,4.99,0.59,-0.94
6830,-24.44,-72.06,33.75,5.16,0.3,-0.49
6840,-25.56,-75.44,22.5,5.42,-0.34,0.81
6850,-23.56,-71.94,13.5,5.54,-0.63,1.13
6860,-16.31,-64.81,5.31,5.67,-1.02,1.19
6870,-10.31,-56.81,-2.31,5.69,-1.53,1.12
6880,-8.81,-48.06,-6.44,5.55,-2.57,0.41
6890,-12.19,-39.38,-6.56,5.7,-3.12,-0.06
6900,-22.56,-38.38,-3.81,5.88,-3.63,-0.21
6910,-36.31,-45.31,1.31,5.83,-4.04,0.32
6920,-42,-54,9.25,5.86,-3.75,2.61
6930,-30.19,-54.88,17.81,5.99,-3.26,3.12
6940,-9.56,-43.81,23.19,6.14,-2.66,3.11
6950,0.31,-21.56,24,6.37,-1.71,2.87
6960,-2.19,5.12,18.69,6.4,-1.69,2.61
6970,-5,29.87,9.31,6.26,-2.05,2.28
6980,-1.06,44.5,1.5,5.99,-2.28,1.9
6990,7.25,52.94,-0.62,6.13,-1.55,1.51
7000,17.69,56.13,-4,6.22,-1.09,1.76
7010,29.94,60.13,-14.75,5.91,-1.25,1.86
7020,39.06,69.81,-28.5,5.41,-1.78,1.9
7030,44.56,85.62,-36.19,4.65,-2.2,1.28
7040,52.44,104.25,-37.25,4.61,-1.99,0.83
7050,57.13,126.69,-36.38,4.3,-1.76,-0.21
7060,53.19,136.56,-36.06,3.91,-1.18,-1.91
7070,43.88,136.94,-35.44,3.67,-0.79,-2.02
7080,41.5,127.87,-34.75,3.19,-0.22,-1.81
7090,49.94,119.87,-33.69,3.06,0.94,-1.32
7100,70.37,121.56,-37.38,3.8,3.57,-1.96
7110,98.81,123.69,-57.13,3.57,3.54,-3.11
7120,117.19,123.06,-91.56,3,2.49,-4.24
7130,116.44,117.12,-119.06,2.23,0.96,-5.02
7140,99.62,103.94,-127.44,0.29,-1.77,-5.01
7150,71.12,90.56,-118.19,-0.25,-2.33,-4.12
7160,40.81,83.06,-95.19,-0.78,-2.09,-2.79
7170,23.87,80.06,-68.69,-1.15,-1.24,-1.32
7180,25.94,85.87,-47.75,-1.42,1.9,-0.32
7190,37.75,101.06,-37.81,-1.37,3.57,-1.17
7200,48.06,118.37,-43,-1.54,4.63,-2.52
7210,49.63,129.06,-62.44,-2.25,3.46,-5.49
7220,44.5,123.62,-89.56,-3.36,1.5,-6.39
7230,32.56,101,-108.25,-4.44,-0.59,-6.39
7240,6.06,75.19,-106.75,-5.34,-2.14,-5.31
7250,-17.87,55.19,-85.75,-6.11,-2.73,-2.77
7260,-27.25,44.19,-56.19,-6.09,-1.62,-1.76
7270,-26.37,45.5,-28.37,-5.69,0.33,-1.53
7280,-15.44,53.56,-14.56,-5.17,2.18,-2.32
7290,-3.81,55,-23.06,-5.11,2.3,-4.43
7300,-3.25,44.69,-44.13,-5.67,0.97,-4.58
7310,-9.25,23.06,-57.5,-6.18,-0.14,-3.99
7320,-12.75,0.75,-53.69,-6.29,-0.26,-3.15
7330,-13.69,-13.81,-41.31,-6.06,1.46,-2.45
7340,-17.87,-20.12,-31.44,-5.49,3.17,-2.36
7350,-19.62,-23.69,-31.19,-4.9,4.67,-2.45
7360,-10.44,-31.44,-45.94,-3.62,5.79,-3.19
7370,4.19,-46.69,-73.37,-3.38,4.66,-3.52
7380,11.31,-68.5,-110.25,-3.57,2.35,-3.22
7390,4.12,-89.81,-137.12,-3.83,0.23,-2.31
7400,-6.5,-104.56,-141.44,-4.31,-2.13,-0.8
7410,-16.87,-109.06,-128,-4.24,-2.14,-0.26
7420,-25.94,-104.56,-104.37,-3.71,-1.32,-0.17
7430,-30,-96.06,-82.12,-3.01,-0.23,-0.65
7440,-34.44,-89.87,-72.94,-1.95,0.99,-1.63
7450,-39.38,-91.37,-74,-1.45,1.28,-1.71
7460,-38.38,-99.44,-79.62,-0.98,1.67,-1.69
7470,-29.94,-110.94,-85.94,0.29,2.44,-1.69
7480,-22.94,-123,-96.12,0.79,2.21,-1.28
7490,-20,-133.06,-113.94,1.1,1.35,-0.73
7500,-17.19,-139.94,-133.94,0.97,0.05,-0.17
7510,-17.44,-138.31,-145.75,0.6,-2.28,0.49
7520,-19.5,-128.12,-140.19,0.91,-2.4,0.37
7530,-19.25,-117.87,-121.75,1.45,-1.86,0.27
7540,-15.19,-112.06,-102.75,2.16,-0.96,0.22
7550,-9.19,-109.12,-93.81,3.05,-0.28,-0.05
7560,-6.25,-107.25,-97.75,3.09,-0.74,-0.35
7570,-8.06,-105,-104.69,3.08,-1.17,-0.53
7580,-12.5,-105.56,-105.75,3.2,-1.51,-0.72
7590,-18.12,-108.31,-103.37,3.43,-2.56,-0.51
7600,-25.44,-112.62,-99.12,3.36,-3.22,-0.16
7610,-33.25,-114.19,-91.94,3.22,-3.57,0.35
7620,-35.94,-111.37,-75.44,3.33,-3.51,1.21
7630,-32.75,-106.44,-54.63,3.37,-2.99,1.61
7640,-26.44,-97.12,-32.56,3.71,-2.03,1.84
7650,-17.06,-81.81,-12.25,4.24,-0.86,1.8
7660,-2,-50,-4.5,4.99,0.65,1.08
7670,-2,-50,-4.5,5.08,0.81,0.52
7680,-2.37,-38.13,-13.5,5.06,0.58,0.08
7690,-2.69,-26.5,-32.69,4.72,-0.1,-0.09
7700,-0.94,-24.25,-32.5,4.57,-1.18,-0.47
7710,-2.94,-25.62,-29.69,4.52,-1.85,-0.49
7720,-6.31,-26.87,-20.37,4.36,-2.41,-0.16
7730,-5.62,-23.31,-6.75,4.36,-2.34,1.11
7740,3.25,-15.56,4.81,4.31,-2.15,1.64
7750,18.37,-2.12,16.94,4.39,-1.62,1.77
7760,27.69,15.38,25.19,4.57,-0.87,1.33
7770,26.87,31.5,26.19,4.45,0.19,0.41
7780,22.06,47.56,24,4.23,0.37,-0.21
7790,13.75,62.19,20.87,4.12,0.4,-0.88
7800,2.06,68,16.5,3.91,0.03,-1.5
7810,-5.06,64.69,13.13,3.51,-1.41,-1.7
7820,-2.06,52.5,14,3.2,-2.54,-1.55
7830,6.87,38.63,23.75,2.89,-3.33,-0.9
7840,18.06,34.25,39.06,2.64,-3.75,-0.14
7850,35.5,40.5,57.56,2.63,-2.56,1.29
7860,35.5,40.5,57.56,3,-1.14,1.19
7870,55.44,56.31,68.12,3.08,-0.4,0.34
7880,42.13,95.19,49.63,2.18,-1.7,-1.24
7890,26.94,100,46.75,1.55,-2.7,-1.02
7900,30,95,57.56,1.27,-3.1,-0.85
7910,40.81,87.44,72,1.3,-2.95,-1
7920,40.81,87.44,72,0.93,-2.25,-0.79
7930,40.63,82.37,89.12,0.58,-1.84,-0.02
7940,46.31,89.31,94.62,0.26,-1.2,0.56
7950,57.25,102.31,95.25,0.04,-0.45,0.35
7960,57.25,102.31,95.25,-0.8,-0.51,-1.74
7970,60.06,118.69,87.31,-1.42,-1.91,-2.9
7980,47.56,112.94,77.62,-2.36,-3.65,-3.78
7990,42.19,89.94,101.56,-3.65,-6.06,-3.44
8000,35.69,70.69,147,-3.98,-5.69,-1.8
8010,35.69,70.69,147,-3.45,-3.57,-0.74
8020,41.69,68.12,202.37,-2.38,-0.88,-0.91
8030,61.44,84.5,258.87,-1.04,3.18,-1.8
8040,60.63,87.75,256.62,-0.73,4.31,-2.39
8050,52.88,81.19,240.81,-1.15,4.89,-2.69
8060,52.88,81.19,240.81,-1.23,5.3,-2.63
8070,42.31,68.19,224,-1.86,4.43,-1.55
8080,20.5,43.94,184.19,-2.44,2.94,-0.59
8090,13.25,42.38,186.94,-2.87,1.9,0.56
8100,18.69,53.5,206.81,-3.1,2.14,1.67
8110,18.69,53.5,206.81,-2.47,5.61,-0.38
8120,32.13,71.87,229.31,-1.71,7.73,-1.86
8130,23.31,97.75,214.87,-1.32,9.5,-3.02
8140,25.81,88.44,168.94,-1.07,10.42,-6.75
8150,21.94,58.75,111.12,-1.55,8.91,-7.89
8160,21.94,58.75,111.12,-1.55,8.91,-7.89
8170,6.81,13.5,61.63,-2.51,6.3,-7.51
8180,-7.31,-62.25,37.56,-3.47,1.36,-2.94
8190,-13.06,-75.56,51.94,-3.23,1.45,-1.57
8200,-19.69,-74.06,69.12,-2.55,2.39,-0.71
8210,-19.69,-74.06,69.12,-2.55,2.39,-0.71
8220,-27.75,-66.12,72.75,-1.84,3.45,-0.23
8230,-50.19,-45.88,46.06,-1.74,2.97,0.34
8240,-54.94,-34.63,36.44,-1.96,2.15,0.21
8250,-50.56,-25,34.81,-2.38,1.67,-1.94
8260,-50.56,-25,34.81,-2.38,1.67,-1.94
8270,-46.13,-23,40.5,-2.04,2.5,-3.01
8280,-42.06,-51,28.56,-1.66,3.65,-4.58
8290,-46.75,-73.5,13.56,-1.01,3.92,-3.97
8300,-46.75,-73.5,13.56,-0.79,3.27,-3.13
8310,-52.56,-94.19,-4.37,-0.79,3.27,-3.13
8320,-58,-106.5,-20.19,-0.74,2.25,-2.19
8330,-60.06,-108,-28.87,-1.03,0.38,-1.34
8340,-58.38,-102.94,-26.25,-0.74,1.03,-1.77
8350,-54.56,-96.37,-16.75,-0.17,2.17,-2.66
8360,-48.81,-93.75,-10.69,-0.17,2.17,-2.66
8370,-46.19,-98.75,-17,0.42,3.11,-3.32
8380,-45.88,-107.81,-35.19,1.28,2.09,-2.89
8390,-44.44,-116.19,-58.13,1.36,0.92,-2.57
8400,-42,-123.81,-74.19,1.45,-0.74,-1.59
8410,-40.75,-129.37,-81.56,1.45,-0.74,-1.59
8420,-40.88,-131.06,-84.06,1.48,-1.49,-1.3
8430,-41.63,-128.06,-81.37,1.56,-2.46,-1.07
8440,-43.13,-120.44,-71,2.35,-1.9,-1.3
8450,-42.31,-112,-57.5,2.92,-1.18,-1.44
8460,-42.44,-106.19,-47.44,2.92,-1.18,-1.44
8470,-44.81,-102.06,-47.5,3.39,-0.73,-1.37
8480,-42.5,-98.87,-57.31,4,-2.23,-1.5
8490,-34.5,-99.81,-70.44,3.99,-3.18,-1.26
8500,-27.25,-105.56,-80.19,3.96,-4.01,-0.97
8510,-20.75,-113.19,-81.5,3.96,-4.01,-0.97
8520,-14.56,-119.06,-72.44,3.95,-4.99,-0.24
8530,-11.06,-121.19,-53.75,4.5,-4.23,0.68
8540,-7.94,-121,-31.25,4.87,-3.54,0.93
8550,-3.56,-117.37,-10.69,5.47,-2.12,1.11
8560,-7.19,-108.44,4.12,5.47,-2.12,1.11
8570,-18.87,-98.19,13.69,5.85,-1.32,1.28
8580,-23.69,-87.44,17.19,6.34,-0.06,1.66
8590,-17.94,-71.5,12,6.75,0.06,1.93
8600,-5.94,-55.06,-1.25,6.62,-0.44,1.82
8610,9.38,-39,-18.37,6.62,-0.44,1.82
8620,21.06,-23.75,-33.63,6.42,-1.33,1.79
8630,27.69,-11.94,-39.25,5.55,-3.23,1.79
8640,30.19,-1.75,-33.75,5.38,-3.33,1.73
8650,26.87,11.5,-19.75,5.15,-3.26,1.52
8660,18.62,28.94,-0.44,5.15,-3.26,1.52
8670,8.19,47,22.75,5.58,-1.05,0.54
8680,2.19,59.63,39.81,6.21,1.27,0.05
8690,2.62,64.87,43.31,6.45,2.02,0.04
8700,4.25,67.06,33.75,6.43,2.11,0.38
8710,5.94,68.56,13.38,6.43,2.11,0.38
8720,10,71.19,-11.06,6.05,1.46,0.93
8730,19.56,77,-31.06,5.36,0.44,1.76
8740,32.31,88.44,-42.31,5.09,0.47,1.19
8750,44.19,105.06,-47.13,4.87,0.42,0.58
8760,49.69,125.06,-52,4.87,0.42,0.58
8770,43.56,149.12,-56.75,4.77,0.21,0.19
8780,31.69,180.19,-59.94,4.42,-0.11,-0.34
8790,27.62,212.94,-60.44,4.37,0.04,-2.4
8800,30.81,248.5,-57.81,4.37,0.04,-2.4
8810,21.69,259.56,-57.13,4.59,0.22,-3.56
8820,8.25,249.37,-64.12,3.37,-0.36,-4.9
8830,13.69,208.81,-76.31,2.31,-1.28,-4.77
8840,35.56,169.31,-84.37,1.41,-2.43,-4.21
8850,42.94,141.19,-78.25,0.18,-3.15,-2.58
8860,41.44,138.44,-53.69,-1.1,-1.95,-0.38
8870,44.88,161.69,-20.87,-0.23,0.02,-1.65
8880,40.69,196.37,5.25,-0.57,2.36,-3.55
8890,16.06,222.37,6.87,-0.38,3.95,-5.58
8900,-17.44,226.44,-21.19,-1.45,3.12,-9.42
8910,-44.5,192.25,-53.56,-2.53,1.49,-9.1
8920,-44.06,135.75,-81.44,-4.71,-1.04,-8.43
8930,-43.19,88.44,-77.62,-5.54,-1.84,-4.28
8940,-36.5,61.94,-51.94,-5.35,-1.18,-2.8
8950,-6.5,47.06,-34.69,-5.64,-0.76,-2.61
8960,0.56,50.81,-21.19,-5.49,0.11,-2.08
8970,-9.88,63.88,-11,-4.98,2.51,-2.35
8980,-9.94,74.06,-11.31,-4.92,2.91,-3.55
8990,-16.5,71.06,-24.06,-5.36,2.44,-4.02
9000,-34.06,57.75,-39.69,-6.04,1.35,-3.47
9010,-41.13,42.06,-45.44,-7.22,-0.24,-1.6
9020,-41.13,42.06,-45.44,-7.28,0.27,-1.17
9030,-7.75,29.81,-23.31,-6.87,1.54,-2.03
9040,8.81,30.69,-17.25,-6.3,2.56,-3.43
9050,7.87,24.37,-25,-6.06,2.6,-5.31
9060,-2.81,8.94,-36.19,-5.84,2.22,-5.73
9070,-16.37,-15.44,-41.56,-5.62,1.74,-5.5
9080,-27.37,-43,-42.5,-5.03,1.47,-3.3
9090,-28,-64.06,-39.69,-4.65,1.88,-2.47
9100,-18.75,-76.56,-36.56,-4.04,2.77,-1.93
9110,-4.81,-81.69,-36.44,-3.23,3.89,-2.12
9120,6.62,-86.75,-45.69,-1.84,4.91,-2.59
9130,7.44,-95.94,-65,-1.35,4.54,-2.29
9140,3.44,-108.06,-88.25,-1.07,3.67,-2.04
9150,-2.87,-118.25,-105.56,-0.98,2.6,-1.71
9160,-16.62,-123.94,-112.25,-0.82,1.11,-0.4
9170,-30.75,-123.37,-109.56,-0.45,1.02,0.01
9180,-36.06,-117.56,-103.19,-0.15,1.18,-0.14
9190,-42.19,-108.75,-99.5,0.77,1.68,0.23
9200,-43.69,-99.87,-101.5,1.14,1.74,-0.14
9210,-31,-95.94,-110.37,1.39,1.5,-0.83
9220,-20.19,-96.25,-121.12,1.62,1.28,-1.31
9230,-17.81,-99.31,-130.31,2.07,0.38,-1.76
9240,-19.81,-104.69,-138.06,2.24,-0.09,-1.81
9250,-27.31,-112.75,-143.94,2.22,-0.66,-1.44
9260,-37.5,-118.94,-145.69,2.36,-1.18,-1.03
9270,-45.13,-121.06,-141.44,2.62,-2.02,-0.1
9280,-50.06,-119.5,-133.06,3.03,-2.15,0.06
9290,-54.06,-117.12,-124.37,3.23,-2.36,0.31
9300,-56.75,-113.12,-116.87,3.49,-2.58,0.76
9310,-53.5,-106.5,-108.94,3.87,-3.14,1.5
9320,-44.56,-98.44,-101.75,3.9,-3.38,1.65
9330,-34.63,-87.56,-93.94,4,-3.6,1.71
9340,-24.12,-75.5,-85.06,3.87,-4.27,1.59
9350,-14.13,-65.12,-74.75,3.63,-4.5,1.57
9360,-6.44,-52.44,-59.69,3.4,-4.53,1.42
9370,-1.75,-35.81,-37.88,3.48,-4.1,1.03
9380,2.5,-21,-13.75,4.35,-1.98,0.04
9390,7.12,-13.13,2.44,4.64,-1.37,-0.36
9400,7.06,-12.44,6.12,4.92,-1.06,-0.39
9410,2.81,-17.25,3.31,4.88,-1.1,0.22
9420,3.37,-20.56,-1.37,4.72,-1.72,1.37
9430,10.19,-15.75,-3.75,4.52,-2.15,1.41
9440,14,-2.69,-2.12,4.44,-2.54,1.52
9450,12.69,12.31,2.81,3.97,-3.13,1.36
9460,16.06,28.25,11.56,3.74,-3.01,0.97
9470,25,42.38,24.75,3.75,-2.49,0.46
9480,34.56,54,38.56,3.79,-1.83,0.05
9490,41.5,62.38,47.63,3.74,-0.59,-1.1
9500,44.75,68.31,52.94,3.74,-0.28,-1.63
9510,40.38,69.5,53.69,3.62,-0.38,-1.81
9520,28.56,65.87,50,3.29,-0.83,-1.37
9530,19.56,59.19,48.63,2.76,-1.06,-0.23
9540,20.06,58.75,53.5,2.84,-0.69,-0.11
9550,24.69,65.12,58.56,2.93,-0.34,-0.18
9560,38.81,76.25,48.69,2.93,-0.29,-0.33
9570,47.25,79.94,40.5,2.24,-1.09,-0.82
9580,51.81,81.37,38.13,1.75,-1.49,-0.94
9590,55.25,81.75,41.63,1.14,-1.88,-0.88
9600,57.13,83.5,52.13,-0.05,-2.08,-1.38
9610,53.19,85.5,68.25,-0.41,-1.56,-1.69
9620,45.75,85.19,82.87,-0.52,-0.74,-1.94
9630,35.88,81.12,91.37,-0.65,-0.08,-2.12
9640,32.31,72.69,93.44,-0.44,2.05,-0.79
9650,44.38,67.87,88.62,-0.49,3.26,0.46
9660,71.06,74.19,75.94,-0.35,4.66,1.07
9670,95.44,85.19,44.75,-0.1,5.95,0.72
9680,97.81,91.5,-5.37,-0.7,5.38,-1.67
9690,77.94,88.94,-52.56,-2.29,2.67,-2.2
9700,47.56,87.75,-70.75,-4.07,-0.42,-2.22
9710,26.31,84.81,-51.31,-6.35,-4.63,-2.45
9720,17.31,75.19,-4.75,-6.7,-4.96,-2.55
9730,14.63,60.5,50,-6.31,-3.81,-2.45
9740,18.19,44.25,87.06,-5.25,-1.66,-2.01
9750,22.69,32.13,95.25,-4.22,1.26,-1.14
9760,19.06,29.62,87.37,-3.87,1.42,-1.09
9770,12.19,29.75,79.25,-4.02,1.26,-1.02
9780,9.56,28.25,77.12,-4.13,0.77,-1.22
9790,8,23.06,83.25,-3.96,0.51,-1.78
9800,5.75,17.75,93.12,-3.83,0.8,-1.87
9810,2.25,13.81,100.19,-3.54,1.19,-2.28
9820,-3.56,7.25,103.12,-3.29,1.49,-2.64
9830,-3.81,-4.37,103.31,-2.71,2.41,-2.58
9840,0.69,-17.5,99.81,-2.42,2.93,-2.27
9850,8.5,-27.5,90.31,-2.09,3.5,-1.72
9860,18.75,-33.06,74.19,-1.72,4.03,-1.27
9870,24.94,-35.63,54.56,-1.77,3.74,-1.35
9880,23.19,-35.69,38.13,-1.7,3.27,-1.58
9890,11.38,-35.5,28.25,-2.06,2.34,-1.86
9900,-6.56,-35.63,27.5,-2.02,1.05,-1.64
9910,-15.94,-40.5,31.25,-1.98,0.57,-1.23
9920,-19,-45.5,39.63,-1.93,0.38,-0.95
9930,-25.81,-45.5,49.44,-1.94,0.4,-0.49
9940,-31,-39.13,57,-1.51,0.91,0.13
9950,-32.56,-29.81,60.44,-1.3,1.16,0.04
9960,-34.69,-18.37,59.38,-1.34,1.04,-0.2
9970,-36.56,-7.62,60.13,-1.29,1.45,-1.79
9980,-36.38,-3.81,60.44,-1.18,1.71,-2.74
9990,-35.13,-8.81,58.5,-0.83,1.97,-3.72
10000,-36.5,-24.12,50.69,-0.64,1.97,-4.5