timestamp,gyrox,gyroy,gyroz,accx,accy,accz
10,-79.37,83.69,-53.38,0.42,-0.52,-2.31
20,-32.38,35.69,-46.44,0.14,-0.75,-1.22
30,23,-17.56,-35.44,-0.96,-0.84,-0.32
40,61.06,-51.63,-18.81,-1.24,-0.35,0.19
50,71.12,-55.25,0.31,-1.18,0.81,0.57
60,55.06,-40.31,12,-1.84,0.99,0.48
70,19.31,-14.63,21.5,-2.58,1.31,0.12
80,-20,12.81,34.06,-3.01,2.31,-0.4
90,-39.25,26.94,44.63,-3.11,5.77,-0.63
100,-25.87,24.94,46.56,-2.61,7.7,-1.24
110,-5.37,17.12,30.75,-1.66,9.13,-1.91
120,-1.37,11.81,-14.38,-0.69,7.39,-4.18
130,-16.5,-3.44,-82.94,-1.49,3.85,-4.31
140,-49.88,-30.19,-138.75,-2.68,0.52,-3.14
150,-80.5,-55.56,-159.44,-3.79,-1.93,-1.65
160,-85.69,-71.5,-145.06,-4.1,-4.27,1.06
170,-59.56,-75.06,-102.06,-3.6,-3.57,1.25
180,-19.37,-72.62,-56.06,-2.76,-2.37,0.46
190,0.31,-63.69,-26.62,-2.02,-1.32,-0.38
200,-5.06,-55.38,-14.38,-0.92,-0.26,-1.28
210,-17.94,-51.31,-14.25,-0.82,-0.88,-1.68
220,-29.44,-53,-17.69,-0.93,-1.66,-1.59
230,-33.56,-62.44,-11.88,-0.74,-2.14,-1.19
240,-30,-73.19,2.62,-0.25,-1.56,-1.04
250,-23.5,-83.94,20.19,0.35,-0.67,-0.76
260,-15.31,-93.06,31.87,0.91,-0.17,-0.4
270,-15.31,-93.06,31.87,1.55,0.32,0.73
280,-2.37,-100.75,34,2.28,0.58,1.11
290,-0.25,-95.37,35.63,2.75,0.65,1.58
300,-0.88,-85.44,32.25,2.85,0.4,2.11
310,-0.25,-69.5,24.87,3.66,-0.43,2.48
320,-0.25,-69.5,24.87,3.6,-0.5,2.12
330,4.94,-51.31,21.75,4.17,-0.42,1.53
340,4.25,-11.06,28,4.64,-0.07,1.05
350,3.5,-3.81,33,5.83,0.92,0.74
360,3.06,-3.62,32.94,6.45,1.17,1.08
370,3.06,-3.62,32.94,6.4,0.79,1.42
380,4.25,-8.31,27.62,6.35,0.08,1.32
390,-4.56,-17.69,22.56,5.76,-0.02,1.8
400,-6.5,-20.12,29.06,5.78,0.57,2.1
410,0.81,-3.69,48.63,6.28,1.35,1.64
420,0.81,-3.69,48.63,6.28,2.65,0.73
430,-0.19,22.25,65.81,6.77,3.51,0.8
440,-40.5,70.37,82.56,6.7,4.27,0.97
450,-48.63,90.62,74.12,6.78,4.43,0.74
460,-46.06,121.5,47.31,4.69,1.76,-0.65
470,-46.06,121.5,47.31,4.69,1.76,-0.65
480,-41.13,213.87,-9.5,3.39,-1.58,-2.44
490,-20,192.69,4.75,1.98,-3.01,-6.1
500,-18.62,152.44,32.13,2.45,-2.78,-6.42
510,-27.75,116.75,53.94,1.76,-2.23,-4.97
520,-27.75,116.75,53.94,1.76,-2.23,-4.97
530,-37.06,103.94,64.94,1.34,-1.92,-3.46
540,-41.5,109.94,74,-1.56,-4.11,-2.83
550,-27.06,103.94,93.12,-2.06,-3.9,-2.35
560,-16.44,100.31,110.06,-2.18,-3.34,-2.15
570,-16.44,100.31,110.06,-2.18,-3.34,-2.15
580,-16,102.25,120.56,-3.61,-1.68,-1.42
590,-7.5,101.56,118.75,-4.35,-0.4,-1.72
600,-8.19,99.69,103.06,-5.25,-0.58,-2.07
610,-2.06,84.81,89.12,-6.06,-2.53,-3.02
620,-2.06,84.81,89.12,-6.06,-2.53,-3.02
630,4.06,61.38,86.12,-7.29,-3.83,-2.03
640,18.25,35.31,113.94,-5.72,-3.68,-0.9
650,19.81,13.44,117.37,-7.5,-5.14,1.09
660,9.56,23.37,139.06,-9.15,-6.34,2.33
670,9.56,23.37,139.06,-9.15,-6.34,2.33
680,-0.56,55.69,179.56,-8.35,-6.49,3.12
690,0.81,88.37,217.44,-6.56,-4.55,1.21
700,5.87,111.69,251.06,-6.07,-3.6,0.12
710,8.5,114.69,278.62,-5.65,-2.37,-0.74
720,17.44,99.81,296.87,-5.65,-2.37,-0.74
730,30.87,76.5,305.75,-4.93,0.31,-2.74
740,38.38,48.25,307.37,-3.54,2.43,-3.51
750,39.63,17.44,297.87,-2.64,3.5,-2.48
760,37.81,-11.5,282.62,-2.8,3.3,-1.93
770,32.75,-31.69,262.81,-2.8,3.3,-1.93
780,27,-41.44,247.62,-2.63,3.29,-1.62
790,27.69,-49.31,233.87,-1.2,4.03,-0.92
800,40.06,-56.88,214.56,-0.65,3.78,-1.35
810,52.75,-63.81,190.56,-1.06,2.7,-1.46
820,44.38,-66.94,165.31,-1.06,2.7,-1.46
830,21.81,-58.38,158.25,-2.02,1.86,-1.18
840,14.06,-51.56,163.25,-0.02,2.87,-4.06
850,9.44,-56.56,159.25,0.69,2.69,-4.8
860,-15.06,-72.69,147.94,1.08,2.44,-4.09
870,-44.81,-96.87,133.81,1.08,2.44,-4.09
880,-54,-114.25,122.06,1.62,1.94,-0.74
890,-39,-117.25,113.44,2.41,1.48,0.38
900,-15.63,-110.94,109.5,3.41,1.95,0.62
910,1,-101.69,103.56,3.78,2.34,0.42
920,11.38,-85.44,94.87,3.78,2.34,0.42
930,17.87,-67.37,82.31,4.16,2.57,0.05
940,19.81,-51.06,61.63,5.33,0.98,-1.17
950,14.19,-48.81,37.63,5.55,-0.08,-0.52
960,-3,-49.75,19.62,5.43,-1.03,0.53
970,-20.06,-44,11.25,5.43,-1.03,0.53
980,-16.25,-26.87,11.44,5.27,-1.7,1.41
990,12.25,-0.19,18.56,5.59,-0.83,-2.27
1000,38.94,21.19,29.25,6.48,0.27,-4.33
1010,40.13,27.19,40.56,8.08,1.88,-5.88
1020,22.5,9,38.38,8.08,1.88,-5.88
1030,2.06,-24.19,20.31,8.53,1.97,-5.14
1040,-15.19,-61.06,-7.87,8.88,0.43,-1.53
1050,-25.75,-91.75,-39.81,7.97,-2.61,2.9
1060,-23.94,-109.19,-65.31,6.91,-3.94,3.79
1070,-5.81,-98.69,-75.25,6.91,-3.94,3.79
1080,18.81,-77.75,-54.13,7.85,-3.46,3.93
1090,36.31,-38.5,-37.5,7.57,-2.71,1.61
1100,39.31,19.19,-23.75,7.63,-2.15,0.75
1110,22.19,63.94,-11.69,7.76,-1.61,0.59
1120,7.12,91.81,-3.62,7.76,-1.61,0.59
1130,3.69,114.44,-2.56,7.73,-1.22,0.8
1140,12.56,129.25,-6.62,6.8,-1.65,-0.95
1150,24.75,127.62,-11.63,6.4,-1.6,-1.36
1160,32.81,121,-13.81,6.4,-1.6,-1.36
1170,42.38,104.5,-16.81,5.29,-2.21,-1.5
1180,46.44,90.5,-12.69,4.68,-1.93,-1.04
1190,37.75,89,-2.19,4.45,-1.12,-0.45
1200,21.62,100.31,4.44,4.32,-0.26,0.09
1210,10.19,122.5,1.75,3.36,0.72,0.05
1220,9.5,148.44,-5.25,2.79,0.76,-0.41
1230,15.94,176.87,-13.81,2.08,0.95,-1.32
1240,29.56,182.44,-26.75,1.46,0.89,-2.25
1250,47.88,177.94,-36.88,0.17,0.62,-4.45
1260,68.31,161.12,-48.31,-1.31,0.13,-4.85
1270,82.25,144.06,-53.69,-2.15,0.29,-5.26
1280,78.31,137.5,-49.25,-2.66,1.3,-5.8
1290,60.63,136.75,-50.06,-3.32,2.72,-7.27
1300,43.25,129.12,-59,-3.59,2.96,-7.88
1310,31.5,103.69,-77.75,-3.96,2.49,-7.95
1320,27.25,66.31,-95.94,-5.08,0.33,-5.84
1330,31.44,29,-104.75,-5.52,-0.59,-4.13
1340,40.5,-1.81,-102.56,-6.23,-1.22,-2.19
1350,51.19,-16.62,-88.5,-6.66,-1.28,-0.77
1360,54.31,-13.75,-66.12,-6.6,0.26,0.08
1370,43.06,-1.5,-47.19,-6.46,1.13,-0.04
1380,22.31,9.69,-36.31,-6.29,1.9,-0.39
1390,1.37,14.06,-31.19,-6.25,2.29,-0.8
1400,-10.38,8.63,-29.19,-6.53,2.87,-0.31
1410,-4.25,-1,-25.44,-6.43,4.03,0.02
1420,15.94,-5.12,-23.75,-6.16,5.51,-0.5
1430,32.81,-4.94,-37.19,-6.14,6.16,-3.66
1440,34.13,-13.56,-60.56,-6.39,4.98,-4.87
1450,22.5,-38.13,-82.56,-7.12,2.99,-5.22
1460,4,-68.87,-86.69,-7.71,1.36,-4.74
1470,-13.25,-94,-70,-7.61,0.99,-2.94
1480,-19.69,-110.06,-44.88,-6.72,2.32,-2.71
1490,-17.69,-120.19,-27.5,-5.85,3.62,-3.02
1500,-25.37,-126.56,-26,-4.92,4.5,-3.26
1510,-34.56,-134.19,-38.13,-4.01,4.13,-2.96
1520,-37,-144.94,-51.06,-3.53,3.81,-2.92
1530,-39.06,-153.25,-55.63,-2.77,3.95,-2.97
1540,-42.63,-160.44,-58.63,-1.99,4.17,-3.21
1550,-52.88,-168.69,-64.19,-0.52,4.03,-3.17
1560,-69.81,-179.19,-72.12,-0.22,4.24,-2.13
1570,-79.06,-185.37,-77.56,1.34,4.86,-1.82
1580,-75.75,-193.56,-95.37,2.76,4.48,-1.77
1590,-82.12,-201.37,-114.75,3.54,4.26,-1.52
1600,-96.69,-207.12,-133.56,4.3,4.32,-1.25
1610,-109.81,-212.69,-151.62,5.33,4.58,-0.72
1620,-119.69,-205.87,-181.5,5.36,2.66,1.68
1630,-118.37,-181.69,-215.06,4.89,1.7,1.89
1640,-99.81,-143.37,-237.87,4.79,0.81,1.04
1650,-72,-108.06,-253.44,5.11,0.11,-0.8
1660,-51.75,-89.12,-270.81,4.66,-3.19,-4.15
1670,-41.13,-102.19,-272.56,4.75,-4.67,-5.51
1680,-39,-135.5,-262.25,4.49,-5.98,-5.98
1690,-51.06,-173.25,-232.87,4.01,-6.77,-5.17
1700,-61.81,-201,-182.44,3.77,-6.79,-2.05
1710,-61.81,-211.25,-115.5,4.19,-5.42,-0.93
1720,-58.44,-204.44,-55.25,4.82,-3.27,-0.06
1730,-47.75,-186.12,-14.44,6.85,1.04,0.4
1740,-36.56,-157,-4.19,7.62,2.29,0.32
1750,-33.69,-127.44,-19.81,7.78,2.43,0.38
1760,-30.5,-96.31,-48.88,7.55,1.55,0.52
1770,-20.25,-68.37,-72.19,6.6,-1.3,-0.46
1780,-9.81,-48.06,-76.62,6.36,-1.82,-1.02
1790,-7.56,-35.63,-63.88,6.32,-1.77,-1.35
1800,-12.25,-25.25,-44.25,6.48,-1.29,-1.58
1810,-19.44,-14.44,-27.12,7.06,-0.47,-1.87
1820,-27.31,-2.94,-18.75,7.05,-0.55,-1.76
1830,-34.38,6.19,-14.19,7.1,-0.6,-1.39
1840,-31.31,13.38,-8.69,7.07,-0.16,-0.9
1850,-21.75,20.87,-2.06,7.26,0.22,-0.81
1860,-12.63,31,0.13,7.02,0.34,-0.74
1870,-9.63,42.44,0.94,6.87,0.76,-0.99
1880,-16.19,54.44,4.31,6.85,1.85,-2.07
1890,-30.56,63.06,8.25,6.92,2.52,-2.77
1900,-52.06,66.69,9.63,7.15,2.55,-3.78
1910,-81.75,60.25,1.56,7.25,2,-3.84
1920,-106.12,46.69,-15.88,6.51,0.17,-1.09
1930,-96.5,33.69,-34.19,6,-0.48,-0.3
1940,-62.63,35.19,-48.06,5.14,-1.06,-0.06
1950,-31.44,51.25,-56.38,4.04,-1.6,0.44
1960,-5.94,83.56,-53.25,2.09,-2.46,-0.43
1970,15,122.12,-35.19,1.66,-2.62,-1.61
1980,16.06,162.19,-11.63,0.76,-2.73,-2.73
1990,5.81,195.06,11.81,0.3,-3.77,-5.4
2000,6.87,195.19,32.69,-1.47,-4.13,-5.77
2010,21.81,169.06,60.75,-1.39,-2.63,-5.28
2020,45.06,134.69,90.75,-1.73,-0.3,-3.91
2030,63.88,113.56,103.06,-3.38,3.33,-2.21
2040,72.12,111,90.44,-2.94,3.53,-2.61
2050,68,127.56,59.56,-3.79,2.19,-3.27
2060,52.25,137.69,27.12,-5.55,0.12,-3.17
2070,35.13,137.62,22,-7.52,-1.52,-3.91
2080,25.12,123.19,41.56,-7.7,-0.98,-3.51
2090,22.44,96.94,59.44,-8.64,-0.8,-2.58
2100,19.56,74.87,60.38,-8.48,-1.02,0.21
2110,27,60.38,59.38,-12.67,-1.12,0.9
2120,47.81,51.81,60.75,-21.39,-1.98,-1.88
2130,30.62,94.87,68.37,-23.06,-2.57,-4.96
2140,7,161.5,76.69,-2.56,-3.5,-9.68
2150,57.69,96.56,51.44,-7.08,-8.91,-7.42
2160,95.06,-87.69,52.06,-10.04,-8.75,-1.2
2170,68.25,-202.94,173.94,-7.85,-3.45,4.04
2180,47.69,-231.69,292.94,-0.59,6.77,5.31
2190,58.94,-220.81,317.87,0.69,8.32,5.74
2200,60.44,-165.75,264.56,-0.03,7.99,6.59
2210,35.13,-98.31,186.19,-1.19,6.04,8.11
2220,24.56,-24.25,115.31,-3.41,1.09,5.14
2230,44.06,42.75,82.81,-4.23,-0.67,2.31
2240,55.75,96.5,80.87,-5.16,-1.67,1.09
2250,30.87,134.62,105.75,-4.08,1.26,-2.81
2260,35.56,113.87,141.31,-3.01,2.64,-4.91
2270,52.19,54.13,151.19,-2.94,3.04,-5.16
2280,38.5,-3.56,133.06,-3.06,2.55,-3.41
2290,13.31,-46.56,108.87,-3.94,0.25,0.48
2300,8.5,-63.63,92.62,-4.41,-0.73,0.46
2310,17.69,-59.31,88.5,-4.59,-1.36,-0.68
2320,21.44,-45.06,98.69,-4.41,-1.45,-2.29
2330,7.56,-39.44,114.94,-3.36,0.81,-3.35
2340,-1.81,-47.06,135.06,-1.38,2.55,-3.85
2350,4.94,-69.69,141.06,-0.36,3.33,-3.51
2360,8.63,-101.94,120.31,-0.1,1.11,-0.59
2370,2.31,-128.81,87.37,-0.08,-0.8,0.76
2380,-2.37,-127.94,60.25,-0.48,-2.69,2.7
2390,-2.37,-127.94,60.25,-0.74,-4.47,3.68
2400,20.31,-55.44,113.87,-0.67,-4.65,2.74
2410,18.12,-20.12,158.44,0.13,-2.62,1.11
2420,15.38,4.62,184.5,0.54,-0.21,0.33
2430,29.12,18.87,190.06,1.79,2.27,-0.61
2440,29.69,11.81,162.44,4.02,5.78,-4.09
2450,7.12,-7.69,110,4.54,5.95,-4.18
2460,-5.94,-28.5,52.06,4.28,4.6,-3.13
2470,4.12,-40.44,14.56,3.82,2.53,-1.85
2480,19.81,-43.63,6.06,3.78,0.23,-1.12
2490,23.19,-41.5,13.44,4.52,0.7,-1.44
2500,14.31,-38.94,14.31,5.43,1.45,-1.51
2510,0.69,-33.38,10.13,6.09,2.17,-1.35
2520,-17.19,-23.81,2.56,6.68,2.26,-1.7
2530,-36.5,-19,-9.88,6.94,1.78,-1.89
2540,-51.5,-19.44,-19.25,7.05,1.1,-1.91
2550,-55.13,-24.62,-24.12,7.38,-0.16,-0.94
2560,-47.88,-31.44,-26.62,7.33,-0.61,-0.38
2570,-38.13,-33.31,-25.25,7.39,-0.81,0.14
2580,-27.19,-27.37,-21.25,7.41,-0.72,0.64
2590,-13.88,-10.75,-18,7.5,0.05,0.77
2600,-6.81,9.88,-18.81,7.66,0.36,0.1
2610,-11,26.56,-23.94,7.77,0.39,-0.59
2620,-18.12,36.56,-31.81,7.47,-0.61,-1.45
2630,-22,39.31,-36.69,7.26,-1.24,-1.56
2640,-23.56,38,-36.31,6.94,-1.86,-1.43
2650,-22.5,36.81,-30.87,6.78,-2.37,-0.99
2660,-13.19,40.06,-22.19,6.33,-2.82,0.33
2670,1.19,49.5,-10.63,6.18,-2.57,0.64
2680,1.19,49.5,-10.63,6.35,-1.76,0.51
2690,24.12,73.94,8.44,6.67,-0.63,0.32
2700,27.31,82.37,3.5,7.29,0.94,-0.13
2710,21.37,91.87,-11.63,7.22,0.81,-0.39
2720,9.81,102.19,-28.06,6.98,-0.07,-0.27
2730,1.5,114.81,-38.75,6.4,-1.47,0
2740,-1.44,131.81,-33.75,4.55,-4.08,0.05
2750,0.62,152.62,-4.44,3.97,-4.07,-0.35
2760,2.5,165.44,42.88,4.04,-2.18,-0.95
2770,1.5,175.62,80.56,5.8,5.04,-1.72
2780,1.5,175.62,80.56,6.31,7.18,-2.17
2790,-3.31,184.19,74.69,5.52,6.83,-2.27
2800,-26.69,186.31,-51.06,3.03,3.71,-2.09
2810,-26.94,194.81,-80.5,-2.01,-2.59,-2.63
2820,-12.25,194.81,-64.25,-3.09,-3.15,-3.1
2830,-12.25,194.81,-64.25,-3.85,-2.25,-3.01
2840,19.44,177.44,-30,-3.81,-0.59,-3.77
2850,44.25,157.19,11.44,-3.7,5.22,-3.56
2860,40.81,175.06,-5,-1.74,7.43,-5.43
2870,28.37,184.81,-61.31,-3.04,6.05,-9.02
2880,28.37,184.81,-61.31,-3.33,3.06,-11.58
2890,-16.31,161.87,-105.56,-5.5,-3.15,-8.74
2900,-69.12,31.75,-113.69,-6.62,-5.56,-4.73
2910,-58.94,-2.87,-77.69,-7.8,-6.58,-0.51
2920,-26.12,-0.25,-25.25,-7.98,-4.42,4.38
2930,-26.12,-0.25,-25.25,-7.98,-4.42,4.38
2940,9.31,26.75,19.75,-7.57,-2.16,4.34
2950,19.19,97.75,62.81,-7.58,2.26,0.33
2960,5.56,107.5,74.94,-6.26,7.77,-4.77
2970,-1.31,88.31,62.13,-5.46,9.38,-7.02
2980,-1.31,88.31,62.13,-5.46,9.38,-7.02
2990,-7.31,36,23.87,-5.59,8.84,-5.85
3000,-18.44,-55.69,-37.88,-5.99,8.3,-0.35
3010,-0.94,-52.13,-46.13,-5.08,9.55,-0.26
3020,8.69,-34.5,-70.19,-4.37,9.95,-1.51
3030,8.69,-34.5,-70.19,-4.37,9.95,-1.51
3040,-0.88,-24.37,-108.25,-4.8,6.04,-4.28
3050,-25.94,-57.69,-132.19,-5.75,3.09,-4.59
3060,-35.25,-79.5,-113.94,-5.1,3.67,-4.22
3070,-38.19,-98.31,-101.37,-2.46,6.5,-3.55
3080,-38.19,-98.31,-101.37,-2.46,6.5,-3.55
3090,-43.31,-110.94,-114,-1.53,6.45,-3.23
3100,-44,-132.31,-167.75,-0.54,4.3,-2.08
3110,-40.31,-143,-182.81,-0.67,1.16,-0.84
3120,-44.5,-147.06,-183.56,-0.78,0.06,-0.3
3130,-44.5,-147.06,-183.56,-0.78,0.06,-0.3
3140,-51.06,-143.87,-170.44,-1.14,-0.76,0.04
3150,-58.31,-124.75,-105.75,0.95,2.98,-0.01
3160,-56.25,-121.06,-91.19,2.45,4.76,-0.03
3170,-55,-120,-111.75,3.28,4.97,0.41
3180,-55,-120,-111.75,3.28,4.97,0.41
3190,-52,-115.56,-155.75,3.12,0.34,1.02
3200,-42.88,-115.81,-197,1.48,-5.22,0.82
3210,-35,-125.25,-214.06,-0.83,-7.53,1.93
3220,-28.44,-124.19,-189.94,-0.73,-5.93,2.23
3230,-17.19,-106.25,-112.87,-0.73,-5.93,2.23
3240,-1.81,-82.19,-23.75,1.16,-1.62,0.5
3250,8.75,-64.56,32.06,4.83,5.08,-2.98
3260,-5.12,-57.31,37.44,6.27,5.41,-2.82
3270,-35.44,-62.38,-8.25,5.55,2,-2.46
3280,-50.5,-76.62,-78.69,5.55,2,-2.46
3290,-50.81,-88.19,-128.25,4.36,-1.92,-2
3300,-50.5,-94.56,-139.56,1.68,-7.75,-0.93
3310,-42.56,-91.44,-113.81,2.47,-6.54,-1.74
3320,-33.5,-83.5,-50.56,3.91,-3.8,-2.37
3330,-37.94,-80.75,11.69,3.91,-3.8,-2.37
3340,-51.81,-84.19,42.88,6.69,0.96,-1.69
3350,-62.69,-91.62,35.75,7.58,0.23,0.45
3360,-61.19,-98.87,5.56,6.96,-1.69,1.6
3370,-50.5,-95.31,-25.62,5.73,-4.8,2.73
3380,-35,-81.62,-38.81,5.73,-4.8,2.73
3390,-15.13,-60.19,-32.75,5.27,-5.51,2.58
3400,7,-34.5,-7.87,5.19,-4.35,1.13
3410,23,-8.13,25.62,5.68,-1.03,-0.71
3420,23.12,12.75,52.63,6.01,0.26,-1.18
3430,15.44,26,65.94,6.01,0.26,-1.18
3440,10.38,31.19,64.69,6.21,1.03,-1.4
3450,9.19,30.06,53.44,6.34,1.01,0.02
3460,9.25,28.94,35.75,5.8,-0.15,0.37
3470,18.25,36.25,13.19,5.48,-1.32,-0.12
3480,37.44,49.75,-2.06,5.48,-1.32,-0.12
3490,56.19,60.44,-5.75,4.82,-2.64,-0.88
3500,69.44,65.37,0.13,5.29,-2.44,-0.84
3510,73.5,60.5,14.25,5.39,-2.04,0.52
3520,54.06,55.88,33.69,5.44,-0.38,1.75
3530,15.75,61.75,58.63,5.44,-0.38,1.75
3540,-28.44,90.06,81.5,4.97,0.93,2.47
3550,-60.31,157.81,84.87,3.07,1.14,1.69
3560,-53.63,248,66.62,2.01,-0.04,-7.78
3570,-19.81,307.44,47.19,1,-0.32,-10.89
3580,20,253.44,36.25,1,-0.32,-10.89
3590,48.69,166.62,33.13,0.05,-0.18,-11.27
3600,35,79.69,34.56,-0.86,0.5,-1.84
3610,13.5,35,30,-1.14,-0.33,-0.59
3620,5.62,31.19,19.69,-1.75,-1.39,0.46
3630,-3.94,45.94,12.31,-1.75,-1.39,0.46
3640,-4.12,66.31,14.75,-3.04,-1.37,1.26
3650,18.5,89.69,24,-3.42,0.63,-2.17
3660,51.5,98.94,28.12,-3.42,1.87,-3.31
3670,70.5,92.56,25.62,-3.78,1.92,-3.92
3680,75.44,75.31,11.25,-3.78,1.92,-3.92
3690,66,55.19,-10.63,-4.39,0.61,-3.31
3700,49.69,41.31,-22.81,-5.09,-2.13,-1.84
3710,34.81,30.87,-20.56,-5.09,-2.13,-1.84
3720,27.06,21.12,-9.44,-5.73,-3.82,0.36
3730,31.25,12.94,12.31,-5.58,-2.93,1.91
3740,50.38,10.81,37.38,-5.02,-1.25,2.92
3750,75.31,18,43.69,-4.9,-0.47,2.42
3760,87.06,32.44,32.06,-5.77,-1.63,1.81
3770,84.56,47.88,29.62,-6.6,-2.41,0.39
3780,75.81,54.19,49.13,-6.81,-2.22,-1.3
3790,65.62,41.06,80.37,-5.94,0.49,-2.88
3800,53.75,12.75,106.12,-5.75,1.84,-1.88
3810,37.88,-13.75,118.75,-5.64,3,-0.6
3820,28.44,-23.56,120.06,-5.55,3.76,-0.06
3830,28.5,-24.25,111.5,-5.36,4.42,-0.57
3840,30,-26.75,96.75,-5.42,3.83,-0.81
3850,25.56,-31.81,78.56,-5.94,2.47,-0.91
3860,16.62,-33.94,68.75,-7.35,-0.01,-1.94
3870,8.44,-33.31,75.56,-7.85,-0.42,-3.35
3880,0.81,-36.94,98.44,-7.91,0.04,-4.82
3890,-13.69,-53.63,128.12,-7.66,1.23,-5.57
3900,-31.12,-88.37,148.56,-8.23,3.05,-3.91
3910,-48.19,-128.75,155.44,-8.32,3.33,-2.47
3920,-59.63,-156.56,163.25,-7.56,4.13,-1.78
3930,-57.94,-170.44,178,-6.12,5.3,-1.86
3940,-52.5,-183.69,189.25,-2.2,9.18,-0.57
3950,-53.63,-193.75,171.75,-0.99,9.71,0.8
3960,-49.56,-192.31,120,-0.7,8.19,1.7
3970,-35.69,-174.12,57.25,-0.8,5.09,1.69
3980,-11.44,-151.75,12.25,-0.84,-1.66,-0.04
3990,15.56,-142.25,0.81,-0.39,-3.66,-0.73
4000,27.19,-143.69,20.56,0.33,-4.63,-0.85
4010,26.12,-142.25,55.56,2.13,-4.06,-0.69
4020,25.25,-127.81,91.44,2.99,-3.28,-1.62
4030,22.12,-108,118.06,3.82,-2.17,-2.85
4040,14.88,-94,133.87,4.41,-0.74,-3.97
4050,6.69,-88.37,137.44,6.18,1.66,-5.97
4060,-5.12,-101.25,126.12,6.54,1.86,-5.46
4070,-20.37,-127.81,101.44,6.79,1.59,-3.92
4080,-25.81,-154,74.31,7.05,1.08,-1.91
4090,-17.31,-164.12,48.63,7.19,-0.3,0.97
4100,4.19,-164.75,28.5,7.09,-0.91,0.62
4110,27.81,-155.94,17.5,7.39,-1.24,-0.14
4120,26.06,-146.75,12.94,8,-1.54,0.94
4130,10.75,-127.69,6.31,7.86,-1.92,2.01
4140,0.13,-90.62,-2.31,7.79,-2.44,2.65
4150,6.81,-49.63,-7.56,7.58,-2.85,2.03
4160,21.44,-8.81,-4.12,7.77,-1.67,-1.39
4170,18.56,23.75,6.19,8.14,-0.9,-2.31
4180,7.25,43,8.13,8.24,-0.99,-3.13
4190,-5.44,50.88,-2.19,8.15,-1.66,-3.51
4200,-24.75,45.5,-11.88,8.08,-2.72,-2.32
4210,-32.06,30.75,-15.44,8.02,-2.89,-1.28
4220,-21,23.44,-14.56,8.06,-2.53,-0.66
4230,-4.31,27.37,-10.94,8.27,-1.76,-0.56
4240,6.87,40.31,-11.69,8.8,-0.33,-0.78
4250,11.56,53.69,-21.25,8.84,-0.37,-0.78
4260,12.94,64.69,-36.94,8.47,-0.95,-0.53
4270,10.38,76.75,-50.25,7.21,-2.24,0.13
4280,6.69,96.19,-52.94,6.83,-2.12,-0.34
4290,12.19,152.75,-29.87,6.58,-1.29,-1.24
4300,12.19,152.75,-29.87,6.76,0.15,-1.51
4310,42.31,191.25,-32.19,7.25,2.97,-1.6
4320,57.63,191.75,-60.75,7.18,3.41,-3.27
4330,49.94,170.06,-98.69,6.86,3.01,-3.45
4340,59.5,150.56,-128.37,5.68,1.87,-2.1
4350,76.62,148.62,-138.87,3.05,-1.1,-1.68
4360,65.81,165.69,-129.81,1.84,-1.61,-1.81
4370,42.75,195.31,-112.37,0.83,-1.56,-2.23
4380,18.25,222.37,-93,-1.36,-1.01,-4.66
4390,-5.44,226,-72.94,-1.78,-0.4,-5.71
4400,-10.94,199.62,-58.5,-2.88,-0.11,-6.5
4410,-17.94,163.87,-47.25,-3.89,-0.36,-7.01
4420,-39.88,135.69,-33.5,-4.98,-0.52,-4.1
4430,-45.63,125.44,-17,-5.97,0.31,-1.19
4440,-14.94,139.37,-8.69,-5.98,1.16,-0.06
4450,12.56,163.25,-11.94,-5.13,2.13,-1.68
4460,2,175.31,-16.62,-6.71,0.58,-5.81
4470,-24.06,168.19,-4.31,-6.65,0.39,-6.7
4480,-35.75,134.25,11.19,-7.36,0.4,-6.72
4490,-38.94,99.12,24.69,-6.97,1.04,-5.73
4500,-30.06,70.81,22.62,-6.36,2.41,-1.83
4510,-13.44,64.19,12.69,-5.87,2.97,-0.16
4520,14.94,68.87,-3.25,-5.27,3.55,0.19
4530,35.56,72.25,-26,-4.54,2.89,-1.65
4540,33.06,68.56,-46.06,-4.91,1.44,-2.28
4550,18.56,60.69,-53.63,-5.3,-0.2,-2.36
4560,9.94,46.63,-43.94,-5.95,-1.68,-2.57
4570,2.5,27.44,-16.94,-6.61,-2.33,-2.29
4580,0.44,8.44,18.81,-6.17,-0.5,-1.44
4590,11.75,-4.06,45.75,-5.57,2.44,-0.77
4600,26.12,-7.37,48.56,-4.64,5.63,-1.06
4610,33.06,-13.56,20.69,-3.04,9.21,-2.61
4620,28.31,-28.75,-28.06,-3.23,8.5,-2.95
4630,11.13,-44.5,-69.5,-4.27,6.14,-2.76
4640,-12.56,-52.19,-80.62,-5.64,3.38,-2.57
4650,-30,-55.69,-59.19,-6.92,1.41,-2.86
4660,-32.63,-63.75,-24.25,-6.44,3.25,-3.28
4670,-30.37,-68.81,-2.37,-5.52,6.22,-3.86
4680,-26.37,-75.5,-10.81,-2.25,11.02,-5.81
4690,-22.12,-97.94,-52.06,-1.01,11.51,-6.31
4700,-22.12,-130.56,-110.69,-0.33,10.39,-5.76
4710,-27.37,-157.44,-161.5,0,7.92,-4.58
4720,-35.75,-172.5,-189.62,-0.05,2.42,-2.21
4730,-47.63,-176.25,-195.87,-0.17,0.39,-1.44
4740,-56.31,-169.94,-181.31,-0.17,-0.73,-0.66
4750,-49.75,-159.87,-154.87,0.41,-0.89,-0.27
4760,-34.81,-153.12,-132.44,2.18,0.4,-0.58
4770,-27.06,-150.56,-125.19,3.12,1.18,-0.74
4780,-23.56,-151.56,-131.87,4.14,1.67,-0.55
4790,-16.69,-158.31,-149.19,4.99,-0.04,0.4
4800,-10.81,-165.94,-165.5,4.75,-1.44,0.88
4810,-7.44,-163.62,-167.94,4.56,-2.56,1.34
4820,-5.5,-150.75,-154.31,4.5,-3.29,1.65
4830,-3.12,-134,-130.69,4.31,-4.22,1.6
4840,-10.38,-110.37,-100.81,4.65,-4.09,1.41
4850,-21,-90.44,-72.56,4.88,-3.69,1.24
4860,-22.94,-75.81,-50.38,5.16,-3.24,0.9
4870,-22.44,-63,-34.5,5.34,-1.98,-0.09
4880,-24.69,-51.31,-25.12,5.75,-1.1,-0.74
4890,-25.81,-49.69,-25.69,6.24,-0.36,-1.05
4900,-26.19,-54.38,-37.06,6.35,-0.38,-0.7
4910,-26.56,-48.25,-49.81,6.06,-2.3,0.71
4920,-24.12,-32.13,-57.31,5.66,-3.51,0.75
4930,-20.12,-13.31,-52.75,5.21,-4.55,0.32
4940,-18.81,3.81,-33.88,4.96,-5.02,-0.56
4950,-18.62,14.31,-6.56,5.16,-4.49,-1.08
4960,-17.44,16.06,19.94,5.51,-3.61,-1.72
4970,-20.75,12.19,36.63,5.82,-2.72,-1.83
4980,-20.06,7.31,43.81,6.46,-0.89,-0.06
4990,-4.37,6.12,41.44,6.73,-0.12,0.92
5000,20.5,14.75,31.31,6.97,0.38,1.62
5010,45.19,36.63,14.06,6.76,0.44,1.67
5020,58.56,64.44,-3.19,6.01,-0.99,-0.63
5030,60.13,82.56,-9.56,5.59,-1.67,-1.36
5040,58.56,87.62,-3.19,5.38,-1.93,-2.02
5050,48.88,81.87,9.81,5.36,-1.23,-1.7
5060,35.75,80,21.5,5.35,-0.3,-0.79
5070,34,94.69,25.06,5.27,0.54,-0.92
5080,40.19,117.12,13.69,5.16,0.6,-1.91
5090,41.06,133.69,-6.06,3.63,-1.7,-3.48
5100,45.38,130,-19.06,2.48,-3.33,-4.14
5110,55,109.81,-8.94,1.38,-4.19,-4.79
5120,49.25,89.75,20.5,0.86,-4.08,-4.48
5130,37.44,73.19,54.69,0.63,-0.93,-1.2
5140,35.69,68,79.31,0.34,1.17,-0.26
5150,33.38,86.62,80.87,0.31,2.5,-0.39
5160,20.69,116.25,61,0.7,3.48,-0.79
5170,14.56,131.19,25.62,-2.6,0.61,-0.88
5180,24.69,142.12,6.87,-3.92,-1.07,-1.87
5190,42.63,138.62,12.81,-5.87,-2.24,-2.93
5200,48.69,129.25,41.31,-6.1,-0.67,-4.54
5210,50.25,106.5,68.37,-6.28,0.74,-4.19
5220,46.5,81.37,82.75,-6.03,2.1,-3.12
5230,38.88,64,84.81,-5.88,3.26,-1.63
5240,38.88,64,84.81,-5.85,5.02,0.93
5250,40.19,53.63,77.06,-6.19,4.92,1.51
5260,48.06,69.19,29.19,-6.87,3.73,0.79
5270,45.31,83.44,4.44,-7.59,1.6,-0.52
5280,40.38,81.12,-2.62,-9.23,-3.14,-2.77
5290,34.19,64.75,17.19,-9.61,-4.55,-3.17
5300,29.19,40.75,60.88,-9.37,-4.87,-3.2
5310,25.37,16.62,112.62,-8.08,-2.91,-3.08
5320,15.13,-0.5,156.69,-7.54,-1.55,-2.99
5330,-3.19,-7.5,190.75,-6.64,-0.13,-3.32
5340,-3.19,-7.5,190.75,-5.74,0.99,-3.65
5350,-23.87,-13.31,211.5,-4.31,2.62,-3.01
5360,-45.38,-48.06,211.87,-3.76,3.3,-1.72
5370,-30.5,-66.25,204.06,-3.19,4.24,-0.84
5380,-2.44,-75.62,192.12,-2.24,5.26,-0.5
5390,-2.44,-75.62,192.12,-1.33,5.25,-0.95
5400,17,-76.19,162.31,-1.82,3.5,-0.36
5410,-4.25,-69.12,93.62,-2.64,1.49,0.47
5420,-12.81,-54,90.5,-2.98,0.22,0.55
5430,-8.5,-41.38,104.62,-2.27,0.64,-1.59
5440,-8.5,-41.38,104.62,-1.47,1.46,-2.35
5450,-8.88,-37.94,120.31,-1.05,1.89,-2.37
5460,-20.06,-53.81,115,-0.26,2.16,-1.98
5470,-14.88,-61.88,105.56,0.22,2.08,-1.86
5480,-9.75,-71.37,96.44,0.97,2.24,-1.21
5490,-9.75,-71.37,96.44,1.56,2.23,-0.18
5500,-6.81,-80.56,86.56,2.15,1.43,1.72
5510,-6.87,-77.87,64.19,2.17,1.07,2.1
5520,-6.75,-54.75,57.69,2.39,0.62,1.71
5530,-9.25,-31,52.56,2.48,0.02,0.97
5540,-9.25,-31,52.56,2.48,0.02,0.97
5550,-13.31,-15.44,51.06,3.01,-0.14,-0.24
5560,3.5,-8.38,51.63,3.58,0.96,-1.31
5570,22.69,-14,48.5,4.92,2.6,-3.22
5580,34.44,-33.25,32.56,5.27,2.54,-3.34
5590,34.44,-33.25,32.56,5.27,2.54,-3.34
5600,28.87,-59,7.19,5.52,1.8,-2.42
5610,3.31,-100.69,-27.37,5.44,-1.03,1.27
5620,-7.81,-100.37,-25.62,5.67,-1.16,2.04
5630,-13.81,-93.62,-18,5.82,-0.96,2.18
5640,-13.81,-93.62,-18,5.82,-0.96,2.18
5650,-23,-74.81,-10.5,6.08,-0.51,2.25
5660,-52.75,-19.5,-14.75,6.41,0.06,2.32
5670,-51.56,6.37,-25.75,6.09,-0.3,1.36
5680,-51.56,6.37,-25.75,6.03,-0.26,0.32
5690,-46.56,26,-32.88,6.03,-0.26,0.32
5700,-43.69,38.44,-36.56,6.45,0.64,-1.05
5710,-37.56,39.19,-44.38,6.94,0.46,-1.68
5720,-28.87,25.19,-61,6.64,-1.83,-0.38
5730,-24.62,7.69,-81.44,6.32,-2.72,0.8
5740,-28.06,-3.69,-93.69,6.32,-2.72,0.8
5750,-28.87,-6.5,-94.5,6.05,-3.32,1.75
5760,-23.56,3.5,-86.87,5.49,-4.73,1.89
5770,-19.06,24.56,-75.19,5.52,-4.87,1.73
5780,-21.62,52.44,-57.13,5.5,-4.89,1.48
5790,-24.31,78.06,-35.63,5.5,-4.89,1.48
5800,-20.56,98.31,-13,5.3,-4.63,1.31
5810,-11.25,118.25,11.06,5.68,0.76,-0.33
5820,7.31,144.44,34.56,6.36,2.63,-1.85
5830,29.69,174.06,43,6.55,3.24,-3.48
5840,41.19,195.12,21.69,6.55,3.24,-3.48
5850,41.25,184.94,-23.62,5.07,-0.2,-4.93
5860,40.19,154,-64.75,2.88,-4.62,-1.92
5870,43,125.06,-79.81,1.38,-7.32,-0.13
5880,45,118.69,-71.81,0.51,-7.7,-0.1
5890,45.88,136.62,-46.75,0.51,-7.7,-0.1
5900,53.88,168.25,-7,-0.17,-6.74,-0.94
5910,76.19,198.87,45.56,0.5,2.12,-7.37
5920,104.44,217.87,89.12,1.46,4.02,-9.3
5930,121.87,213.19,101.12,1.29,5.25,-9.45
5940,109.94,192.87,84.31,1.29,5.25,-9.45
5950,81.94,150.75,44.69,-0.54,4.47,-7.7
5960,55.44,117.62,3.69,-3.88,0.01,-3.04
5970,39.25,110.25,-3.87,-3.82,0.97,-3.24
5980,39.75,117.19,16.44,-3.85,2.82,-5.55
5990,51.69,127.12,36.31,-3.85,2.82,-5.55
6000,54.81,123.12,44.69,-4.16,3.8,-5.16
6010,49.13,106.37,45.56,-4.58,5.06,-3.78
6020,55.06,86.25,38.81,-5.53,4.11,-3.16
6030,65.75,69.19,24.5,-5.97,4.17,-3.27
6040,66.31,58.25,12.56,-5.97,4.17,-3.27
6050,56.75,54.31,15.5,-5.99,5.08,-4.02
6060,41.25,52.25,25.37,-5.18,6.39,-6.52
6070,20.06,40.31,27.87,-5.15,6.27,-5.72
6080,-6.12,13.88,22.5,-4.86,6.35,-4.46
6090,-25.19,-20.44,17.75,-4.86,6.35,-4.46
6100,-32.44,-51.69,17.31,-4.51,6.68,-3.08
6110,-32.88,-72.94,17.56,-3.36,9.19,0.01
6120,-29,-79.37,14.5,-2.81,9.98,-0.21
6130,-20.37,-73.19,2.06,-2.88,8.68,-1.86
6140,-16,-61.38,-23.5,-2.88,8.68,-1.86
6150,-24.37,-50.88,-58.38,-3.52,6.71,-2.74
6160,-43,-46.88,-87.94,-4.4,4.36,-4.55
6170,-63.06,-47.44,-96.5,-4.4,4.36,-4.55
6180,-78.31,-52.06,-85.94,-3.56,5.74,-6.57
6190,-90.5,-85,-92.31,-2.8,5.95,-7.55
6200,-91.25,-120.06,-114.81,-2.29,5.24,-7.87
6210,-91.25,-120.06,-114.81,-2.1,3.92,-7.19
6220,-87.5,-182.69,-138.69,-1.07,1.87,-5.36
6230,-102.75,-196.44,-138.69,-1.08,0.73,-4.48
6240,-112.44,-198.56,-135,0.06,0.47,-3.22
6250,-107.94,-195.69,-131.62,-0.21,-1.32,-2.6
6260,-113.75,-186.31,-112.31,0.41,-0.94,-2.84
6270,-116.25,-180.87,-94.25,1.45,0.33,-2.99
6280,-108.37,-185.5,-93.69,2.48,1.52,-3.46
6290,-105.25,-195.56,-108.12,4.23,2.28,-2.68
6300,-100.62,-205.75,-131.5,4.8,1.75,-1.68
6310,-90.12,-209.25,-154.19,5.06,0.88,-0.8
6320,-77.31,-204.56,-170.06,5.35,-0.19,-0.03
6330,-64.37,-196.44,-178.31,5.34,-2.62,1.05
6340,-56.5,-178.62,-176.75,4.95,-3.69,1.07
6350,-53.56,-153.56,-161.56,4.84,-4.3,1.1
6360,-45.81,-129.37,-140.5,4.83,-4.39,0.94
6370,-40.25,-109.31,-121.81,5.07,-4.7,-0.37
6380,-43.38,-98.31,-106.06,5.09,-4.75,-1.07
6390,-50.13,-96.31,-91.06,5.12,-4.91,-1.48
6400,-56.25,-102.31,-74.5,5.26,-5.4,-1.6
6410,-62.25,-113.37,-56.63,5.51,-5.42,-1.24
6420,-63.25,-127.62,-39.5,5.64,-5.27,-0.4
6430,-56.44,-128.25,-21.37,5.67,-5.07,1.02
6440,-43.38,-123,-4.81,6.21,-3.7,2.52
6450,-22.81,-113.75,5.5,6.44,-2.56,2.55
6460,-2.31,-98,5.75,6.66,-1.7,2.25
6470,3.12,-79.94,-0.62,6.64,-1.39,1.54
6480,-8.13,-48.81,-6,6.11,-1.63,1.93
6490,-19.44,-12.69,-7.75,6,-1.94,1.93
6500,-19.19,13,-6.87,5.94,-2.29,1.06
6510,-15.94,27.19,-5,5.86,-2.87,0.31
6520,-16,31.06,0.81,5.28,-4.14,0.41
6530,-8.44,36.13,11.94,5,-4.38,1.15
6540,17.06,44.25,25.75,4.96,-4.35,1.57
6550,48.06,55.06,39.19,5.01,-3.34,0.68
6560,64.94,70.37,50.13,5.24,-2.58,-0.11
6570,62.31,85.37,54.69,5.27,-2.19,-0.67
6580,50,97.31,57.25,5.22,-2.19,-0.87
6590,41.63,103.56,61.38,5.14,-2.19,-0.42
6600,44.5,104.37,66.31,5.03,-2.44,-0.32
6610,49,103,73.19,4.81,-2.84,-0.15
6620,51.25,109.06,84.44,4.37,-3.01,0.39
6630,64.37,125.56,96.62,3.7,-1.51,0.94
6640,85.12,154.69,100.06,3.52,-0.98,0.89
6650,102.31,189.56,94.19,3.25,-0.97,0.6
6660,109.06,210.94,87.56,1.53,-2.29,-3.33
6670,105.5,202.62,94.25,1.11,-2.26,-4.32
6680,112.75,178.06,112.06,0.51,-1.48,-5.05
6690,121.25,154.69,128.69,0.25,0.04,-5.39
6700,116.75,138.5,130.81,0.7,3.45,-5.24
6710,104.75,130.62,110.75,0.3,3.77,-5.67
6720,86.44,122.94,79.12,-0.13,3.17,-5.81
6730,73.5,108.19,49.81,-1.06,1.04,-5.67
6740,64.06,91.19,48.75,-3.24,-3.43,-4.85
6750,59,73.69,76.5,-4.02,-3.94,-3.07
6760,73.12,65.87,118.25,-3.79,-2.94,-1.78
6770,93.94,71.62,152.44,-3.37,-1.11,-2.06
6780,102.19,76.31,177.94,-2.84,3.75,-4.48
6790,94.62,69.69,195.31,-1.55,6.36,-5.21
6800,78.5,45.94,182.5,-0.11,8.98,-4.82
6810,62.44,17.56,129.06,-0.09,9.74,-1.28
6820,48.81,1.75,65.62,-1.03,7.32,0.77
6830,35.38,10.38,15.56,-2.46,3.8,2.34
6840,28.69,37.38,-0.31,-3.67,0.47,3
6850,31.81,65.56,19.5,-4.75,-3.31,1.32
6860,35,84.81,61.94,-4.68,-3.5,-0.04
6870,37.63,88.06,111.56,-4.09,-2.61,-1.43
6880,39.94,75.94,152.87,-3.53,-1.22,-2.74
6890,34.75,55.81,179.56,-1.93,2.89,-3.89
6900,28.62,29.69,187.56,-1.11,4.73,-3.42
6910,25.31,4.25,171.56,-0.73,5.75,-2.22
6920,28.44,-11,141.37,-0.67,5.16,0.29
6930,35.31,-12.19,107.62,-1.15,3.42,0.89
6940,41.88,-3.69,87.94,-1.3,2.1,1.01
6950,51.75,3.37,83.56,-1.25,1.21,0.63
6960,55.31,8.81,86.31,-2,0.17,-1.16
6970,47.38,13.38,101.25,-1.92,0.99,-2.34
6980,31,11,117.62,-1.67,2.17,-3.24
6990,9.38,0.06,123.44,-1.48,3.19,-3.43
7000,-6.62,-14.75,120,-1.2,4.79,-2.54
7010,-13.69,-27.62,108.12,-0.88,5.19,-1.91
7020,-11.44,-37.94,87.75,-0.81,5.1,-1.36
7030,-7.12,-43.69,65.25,-1,4.45,-0.98
7040,-7.06,-41.13,51.06,-2.51,2.73,-1.09
7050,-8.88,-31.06,54.13,-2.97,3.22,-2.58
7060,-15.88,-25.44,68.31,-3.16,4.57,-4.21
7070,-31,-30.31,80.19,-1.39,8.9,-6.16
7080,-44.31,-53.56,73.75,-0.43,10.82,-5.6
7090,-47,-84.94,40.94,0.17,11.93,-4.25
7100,-37.81,-106.56,-14.31,0.54,11.8,-2.91
7110,-24.06,-111.5,-75.5,0.08,7.4,-1.84
7120,-15.38,-108.06,-121.81,-0.29,4.56,-2.09
7130,-18.12,-103.19,-142.62,-0.63,2.08,-2.36
7140,-30.94,-99.06,-140.87,-0.93,-0.02,-2.54
7150,-47.25,-94.75,-121.69,-1.69,-3,-2.93
7160,-63.19,-95.31,-87.12,-1.43,-3.05,-2.85
7170,-72.69,-99.94,-43.75,-0.62,-1.64,-2.23
7180,-68.31,-102.5,-13.5,1.62,2.43,-2.07
7190,-62.63,-100.81,-11.94,2.44,3.23,-2.33
7200,-63.56,-99.81,-33.13,2.81,2.89,-2.3
7210,-61.06,-101.81,-59.81,2.76,1.62,-2.28
7220,-55.88,-105.25,-74.06,2.8,-0.35,-2.25
7230,-53.13,-108,-72.56,3.3,-0.36,-2.34
7240,-53.25,-110.75,-66.25,3.99,-0.03,-2.2
7250,-52.69,-115.87,-65.31,4.73,0.36,-1.77
7260,-49.63,-120.87,-72.94,5.66,-0.06,-0.48
7270,-45.25,-123.31,-85.37,5.98,-0.68,0.22
7280,-36.06,-124.56,-97.69,6.14,-1.54,0.58
7290,-26,-124.12,-105.25,6.03,-2.52,0.88
7300,-19.56,-119.12,-102.06,5.45,-3.82,1.59
7310,-14.25,-107.87,-85.5,5.51,-3.51,1.43
7320,-12,-92,-61.38,6.16,-2.44,1
7330,-20.75,-79.12,-46,7.4,-0.79,0.83
7340,-37.88,-72.56,-46,7.66,-0.79,1.29
7350,-53.38,-70,-54.25,7.62,-1.32,1.72
7360,-62.19,-69.06,-61.56,7.73,-1.89,1.98
7370,-64,-71.31,-63.81,7.36,-3.45,2.19
7380,-61,-68.69,-63.31,7.1,-4.22,2.59
7390,-64.62,-47.19,-58.81,6.31,-4.87,3.64
7400,-60.94,-5.5,-49.44,6.04,-5.46,4.33
7410,-33.69,32,-37.56,5.59,-6.86,1.57
7420,-5.06,51.38,-21.62,5.54,-7.32,0.31
7430,1.37,51.81,3.12,5.37,-7.34,0.52
7440,0.81,42.56,36,5.52,-5.1,2.52
7450,12.06,45.19,68.19,5.71,-3.56,2.58
7460,17.5,66.56,89.06,5.87,-2.14,2.17
7470,7.19,92.75,96.31,5.92,-1.23,1.83
7480,-2.56,114.62,89.12,5.28,-1.43,1.53
7490,2.62,133.12,75.31,4.47,-2.29,1.68
7500,22.69,152.75,66.31,3.55,-2.76,1.99
7510,56.81,179.94,69.62,3.16,-2.13,2
7520,99.25,219.12,79.56,2.43,0.88,-2.08
7530,122.5,260.75,88.87,2.8,2.75,-6.28
7540,92.06,259.06,83.87,3.01,4.39,-8.32
7550,53.94,210.62,54.5,2.43,4.49,-9.33
7560,32.19,142.69,16.19,0.1,0.9,-6.53
7570,-1.37,86.25,2.75,-0.72,0.21,-2.11
7580,-11.69,65.62,11.88,-0.9,0.77,1.37
7590,27.75,78.87,28.37,-0.15,4.11,0.78
7600,68.37,110.06,33.5,0.1,5.18,-1.73
7610,62.25,142.06,20.19,-0.12,5.43,-3.27
7620,27.5,153.44,-2.19,-0.91,4.86,-3.34
7630,6.56,148.31,-22.12,-2.84,1.56,-3.88
7640,-5.25,139.5,-27.75,-3.53,1.1,-3.44
7650,-22.37,137.44,-9.19,-3.52,2.37,-3.18
7660,-19.56,134.94,9.19,-3.34,3.65,-3.86
7670,-11.81,126.25,10.38,-3.57,4.35,-5.14
7680,-17.37,109.31,3,-3.81,4.44,-4.54
7690,-19.19,87.69,-3.87,-3.94,4.4,-3.88
7700,-19.19,87.69,-3.87,-4.76,3.65,-2.99
7710,-14.63,60.56,-15.19,-5.13,3.87,-2.75
7720,-20.75,60.31,-11.13,-5.23,4.92,-2.94
7730,-20,61.94,-5.62,-4.88,6.67,-3.42
7740,-13.69,59.81,-10.81,-3.78,9.01,-4.66
7750,-13.69,59.81,-10.81,-3.68,8.03,-5.55
7760,-8.25,51.69,-39.75,-4.26,5.63,-5.87
7770,-8.69,4,-123.06,-4.69,3.28,-5.08
7780,-12.25,-26.5,-136.19,-5.42,0.53,-2.61
7790,-11.44,-46.13,-128.87,-5.22,0.39,-2.29
7800,-11.44,-46.13,-128.87,-4.99,0.51,-2.13
7810,-16.56,-53.44,-112.06,-4.85,0.51,-1.93
7820,-46.31,-55,-84.87,-4.39,2.02,-2.2
7830,-46.88,-57.69,-70,-3.49,3.72,-3.02
7840,-45.56,-65.69,-66.31,-2.56,4.97,-3.32
7850,-45.56,-65.69,-66.31,-2.56,4.97,-3.32
7860,-48.56,-78.62,-81.62,-1.77,4.61,-2.47
7870,-44.5,-105.37,-129.87,-1.17,2.65,-2.13
7880,-46.44,-112.44,-143.5,-1.11,1.59,-1.99
7890,-52.5,-116.19,-148.81,-0.31,0.1,-1.67
7900,-52.5,-116.19,-148.81,-0.31,0.1,-1.67
7910,-54.63,-119.87,-149.06,0.08,-1.42,-1.29
7920,-67.81,-124.75,-142.31,0.21,-1.8,-0.71
7930,-65.75,-121.5,-130.06,1.07,-1.2,-0.62
7940,-51.88,-118.06,-116.69,1.82,-0.54,-1.07
7950,-51.88,-118.06,-116.69,1.82,-0.54,-1.07
7960,-39.38,-117.81,-111.5,2.45,-0.24,-1.45
7970,-39.81,-124.94,-122.12,3.47,-1.97,-0.68
7980,-43,-127.81,-125.31,3.62,-2.65,-0.33
7990,-46.06,-129.19,-123.06,3.73,-3.3,0.08
8000,-46.06,-129.19,-123.06,3.73,-3.3,0.08
8010,-45.5,-128.75,-115.19,3.93,-4.13,0.91
8020,-31.69,-116.94,-84.44,4.4,-4.14,1.37
8030,-24.19,-106.75,-69.37,4.51,-4.15,1.39
8040,-17.5,-94.75,-55.63,4.78,-4.43,1.04
8050,-17.5,-94.75,-55.63,4.78,-4.43,1.04
8060,-13.19,-77.81,-25.75,4.92,-4.45,0.91
8070,-16.25,-72.87,-9.31,5.38,-4.03,1.21
8080,-19.37,-54.88,18.87,5.79,-3.17,1.84
8090,-20.87,-36.94,27,6.1,-2.55,2.05
8100,-20.87,-36.94,27,6.1,-2.55,2.05
8110,-19.19,-19.87,26.56,6.46,-2.04,1.94
8120,-15.06,-5.94,19.75,5.94,-2.54,1.79
8130,-2.56,10.44,13.88,6.03,-2.23,1.02
8140,23.75,22.62,12.06,6.27,-2.12,0
8150,45.31,24.06,6.06,6.27,-2.12,0
8160,51.19,17.94,-3.25,5.91,-3.91,-0.5
8170,48.88,11.19,-3.56,5.09,-6.01,1.29
8180,50.88,11.94,11.31,4.8,-6.31,2.52
8190,62.13,26.37,39.75,5.3,-4.57,2.88
8200,79.19,52.25,70.5,5.3,-4.57,2.88
8210,89.5,81.87,90.62,5.49,-3.33,1.75
8220,83.62,106.37,97.62,5.39,-2.43,-0.43
8230,67.19,118.19,100.06,4.6,-2.6,-0.65
8240,47.69,120.62,106.69,4.31,-2.3,0.39
8250,43.69,116.94,118,4.31,-2.3,0.39
8260,63.13,120.56,129.56,4.06,-1.46,1.27
8270,87.87,138.31,135.44,3.7,2.99,0.16
8280,102.56,169.12,127.81,3.3,3.58,-1.68
8290,103.19,203.12,101.12,2.96,2.84,-4.65
8300,94.12,199.12,62.56,2.96,2.84,-4.65
8310,82.06,165.62,36.19,-0.25,-1.06,-7.01
8320,72.37,124.06,40.69,-2.33,-1.5,-4.06
8330,72,94.75,72.75,-2.16,0.75,-2.79
8340,75.69,87.56,98.12,-1.69,4.57,-2.42
8350,71.12,93.56,99.19,-1.69,4.57,-2.42
8360,58.69,102.25,81.44,-2.12,5.34,-2.54
8370,39.38,109.75,56.5,-4.73,3.12,-3.33
8380,16.56,111.25,34.19,-4.82,2.44,-3.18
8390,4.87,107.06,28.06,-5.14,2.73,-3.14
8400,18.12,96.12,33.5,-5.14,2.73,-3.14
8410,34.44,84.12,35.38,-5.35,2.79,-3.71
8420,36.56,70.94,35.19,-5.9,2.49,-4.42
8430,31.69,53.94,36.5,-5.84,2.19,-4.23
8440,27.12,34.38,40.5,-5.79,1.9,-3.71
8450,22,14.31,47.25,-5.79,1.9,-3.71
8460,17.81,-1.5,56.75,-5.54,1.52,-2.19
8470,12.75,-10.94,70,-5.22,2.26,-1.09
8480,6.44,-13.31,83.44,-4.66,3.19,-0.98
8490,5.25,-15.19,91.06,-4.09,4.37,-0.98
8500,4.37,-18.69,87.25,-4.09,4.37,-0.98
8510,1.06,-21.44,77.12,-4.18,4.33,-0.88
8520,2,-22.44,68.62,-4.44,5.77,-1.69
8530,14.06,-23,63,-4.06,6.47,-2.87
8540,28.31,-24.87,53.38,-3.66,6.66,-3.84
8550,31.06,-34.44,32.81,-3.66,6.66,-3.84
8560,20.19,-52.88,3.56,-3.78,5.55,-4.44
8570,0.88,-74.87,-12,-4.29,1.11,-1.87
8580,-13.69,-91.19,-8.63,-4.1,0.84,-1.2
8590,-20.81,-95.25,4.06,-3.67,0.76,-1.1
8600,-29.56,-87.56,15.81,-3.67,0.76,-1.1
8610,-37.19,-79.19,24.31,-2.76,0.62,-2.06
8620,-43.25,-79,30.56,-2.21,0.4,-2.62
8630,-47.88,-86.31,34.38,-1.78,0.01,-2.59
8640,-46.44,-95,40,-0.8,-0.46,-1.97
8650,-39.88,-103,48.38,-0.14,-0.21,-1.68
8660,-35.19,-109.31,56.31,0.69,0.43,-1.32
8670,-33.94,-110.81,57.31,1.5,0.99,-0.88
8680,-34,-108.12,50.31,2.61,1.1,-0.06
8690,-33.69,-103.31,39.88,2.98,0.75,0.1
8700,-33.94,-97.06,30.69,3.22,0.3,0.19
8710,-33.31,-88.87,23.81,3.51,-0.13,0.19
8720,-30.69,-81,19.5,3.73,-0.9,-0.51
8730,-28.25,-76.56,19.75,4.13,-0.77,-1.11
8740,-25.75,-78.69,18.5,4.56,-0.59,-1.43
8750,-24.5,-85.06,11.81,4.86,-0.89,-1.51
8760,-24.56,-91.94,6.19,5.05,-2.05,-0.57
8770,-20.25,-98.06,6.56,5.19,-2.22,0.01
8780,-6.25,-103.56,12.88,5.65,-1.68,0.66
8790,12.44,-106.25,15.13,6.97,-0.13,1.46
8800,22.06,-103.37,6.62,7.22,-0.11,1.85
8810,20.37,-94.81,-7,7.23,-0.57,2.43
8820,19.87,-80.12,-15.5,6.86,-1.15,2.85
8830,18.12,-56.38,-13.81,6.85,-0.8,2.7
8840,8.19,-27,-10.31,6.89,-0.37,2.31
8850,-5.44,-0.5,-14.19,6.7,-0.49,1.56
8860,-17.56,16.31,-19.94,6.44,-1.05,0.75
8870,-24.44,19.31,-21,6.01,-1.91,0.81
8880,-22.81,16.94,-16.56,5.7,-1.9,1.39
8890,-14.31,22.56,-8.06,5.74,-1.1,1.68
8900,-5.31,34.25,-3.94,6.2,1.11,0.9
8910,-2.31,46.31,-12.38,6.19,1.39,0.63
8920,-1.87,55.88,-29.87,5.88,1.04,0.73
8930,3.44,63.94,-45.19,5.35,0.47,1.15
8940,13.69,76.37,-53.13,4.64,-0.5,0.57
8950,19.44,93.06,-56.63,4.2,-0.96,0
8960,16.44,109.81,-54.75,3.87,-1.34,-0.57
8970,9.75,125,-48.81,3.2,-1.44,-0.73
8980,12.5,143.56,-37.44,2.5,0.13,-2.89
8990,28.94,143.56,-26.56,2.91,1.62,-4.62
9000,42.5,122.44,-28.19,3.06,2.64,-6.35
9010,32.56,89.69,-44.31,3.14,3.03,-6.87
9020,8,52.38,-66.94,2.1,0.46,-2.98
9030,-8.94,28.06,-79.06,1.51,-1.02,-0.45
9040,-12.25,24.94,-73.94,0.78,-2.09,1.58
9050,-5.44,47.38,-52.13,0.01,-1.04,2.75
9060,4.06,90.75,-26.75,0.37,0.42,0.98
9070,7.75,135,-10.19,0.67,2.81,-0.97
9080,11.88,152.06,-18.69,0.28,3.64,-3.08
9090,16.62,140.31,-42.44,-0.98,1.67,-6.7
9100,8,101.94,-57.81,-2.46,0.23,-5.56
9110,-15.94,70.75,-51.63,-2.97,0.22,-2.87
9120,-16.62,57.5,-35.44,-2.79,1.23,-0.84
9130,0.88,56.5,-30.81,-3.03,2.11,0
9140,-2.12,66.69,-39.69,-3.73,1.22,0.51
9150,-17.62,81.56,-43.31,-4.62,0.25,1.04
9160,-18.19,94.31,-33.75,-5.49,0.64,0.23
9170,-3.62,102.25,-20.31,-5.76,1.24,-1.33
9180,3.62,104.12,-14.88,-6.09,1.52,-2.58
9190,-0.88,94.81,-14.88,-6.75,1.32,-3.18
9200,-7.31,78.25,-12.5,-7.41,0.91,-3.97
9210,-15.75,57.94,-5.5,-7.69,0.93,-3.75
9220,-26.75,39.19,3.62,-7.63,1.44,-3.4
9230,-32.25,22.87,10.56,-7.13,2.16,-3.33
9240,-33.75,7.31,7.87,-6.69,2.69,-2.77
9250,-31,-7,-0.13,-6.47,2.85,-2.46
9260,-17.81,-22.06,-8.94,-6.15,3.02,-2.39
9270,-4,-34.75,-18.69,-5.77,3.11,-2.63
9280,0.81,-45.81,-29.31,-5.31,2.4,-3.41
9290,-7.06,-56.44,-36.25,-5.15,1.89,-3.67
9300,-22.37,-66.94,-35.19,-4.79,1.88,-3.96
9310,-39.75,-80.62,-30.56,-3.52,2.39,-3.37
9320,-56.69,-98.81,-30.37,-2.86,2.67,-2.13
9330,-59.63,-115.81,-33.88,-2.39,2.98,-1.02
9340,-45.5,-124.06,-40.63,-1.69,3.76,-0.28
9350,-20.06,-127.37,-51.69,-0.07,4.95,-0.61
9360,-3.44,-129.37,-71.69,0.08,4.55,-0.59
9370,-5,-127.87,-93.06,0.91,4.22,-0.4
9380,-4.12,-126.75,-110.37,0.94,3.16,-0.83
9390,-12.94,-125.37,-119.87,1.12,1.24,-0.71
9400,-31.12,-122,-117.06,1.34,0.74,-0.65
9410,-40.56,-120.62,-112,1.69,0.63,-0.56
9420,-45.06,-121,-103.44,2.19,1.04,-0.25
9430,-46.38,-117.81,-100,3.75,2.51,0.84
9440,-32.81,-113.94,-108,4.44,2.71,0.79
9450,-11.13,-113.12,-128.87,4.8,1.87,0.45
9460,-1.19,-112.44,-152.31,4.47,-1.6,0.44
9470,-3.44,-112,-163.69,4.18,-3.01,0.66
9480,-8.81,-111.25,-158.87,3.88,-4.04,0.78
9490,-16.94,-105.87,-140.69,3.68,-4.64,1
9500,-27.69,-93.44,-112.62,4,-5.01,1.35
9510,-36.19,-76.75,-81.19,4.3,-4.99,1.02
9520,-45.69,-62.56,-53.94,4.32,-5.06,0.85
9530,-59.44,-50.94,-29.06,4.37,-4.97,0.9
9540,-67.5,-39.5,-3.69,4.78,-3.16,0.93
9550,-61.81,-27.87,16,5.22,-2.04,0.3
9560,-49.88,-21.62,22.37,5.55,-1.14,0.03
9570,-37.38,-21.56,17.25,5.96,-0.24,0.34
9580,-21.56,-24.94,5.19,5.95,-0.63,0.68
9590,-9.38,-24.94,-9.5,5.79,-1.59,1.04
9600,-5.75,-17.69,-19.5,5.52,-2.64,1.37
9610,-7.94,-3.44,-20.19,5.08,-4.43,1.67
9620,-11,12.44,-11.94,4.73,-4.87,1.92
9630,-9.25,30.19,5.25,4.53,-4.49,1.9
9640,1.75,51.44,28.5,4.76,-3.2,1.24
9650,17.56,74.06,43,5.09,-0.94,-1.15
9660,26.75,90.62,41.44,4.71,-0.86,-2
9670,27.81,95.25,32.25,4.28,-0.96,-2.58
9680,29.62,89.19,27.19,4.1,-0.94,-3.13
9690,34.63,69.44,24.87,3.82,-1.21,-2.98
9700,31.56,49.31,22.62,3.45,-1.54,-1.51
9710,24.31,40.94,23.44,3.19,-1.65,-0.48
9720,27.31,48,27.44,2.88,-1.34,-0.61
9730,34.13,62.13,31.75,2.72,-1.02,-0.88
9740,38.69,73.31,33.19,2.32,-0.79,-0.99
9750,49.56,81.31,31.56,2.01,-0.23,-1.25
9760,73.12,82.37,28.5,2.16,0.76,-2.84
9770,96,70.81,18.44,1.58,0.48,-2.46
9780,99.12,56.63,4.44,0.85,-0.38,-1.83
9790,85.56,51.69,0.13,0.53,-0.59,-1
9800,66,53.69,8.25,-0.8,-0.34,0.92
9810,56.5,64.12,16.69,-1.18,0.5,0.48
9820,48.88,91.62,30.31,-1.21,1.62,-0.66
9830,41.69,108.62,34.81,-2.02,2.64,-2.63
9840,38.94,103.06,30.44,-2.5,2.74,-2.48
9850,36.13,86.81,22.56,-2.97,3.01,-1.15
9860,35.38,69.56,14.13,-3.38,2.91,0.42
9870,41.5,66.12,0.62,-4.57,1.46,1.93
9880,54.44,74.69,-10.69,-5.34,0.86,1.46
9890,65.56,90.06,-12.94,-6.04,0.72,-0.02
9900,63.81,106,-6.19,-6.54,0.74,-1.87
9910,47.81,110.06,5.12,-6.87,0.63,-4.61
9920,26.19,97.19,16.62,-7.02,0.37,-4.71
9930,7.56,66.81,26.62,-7.18,0.06,-3.58
9940,-1.37,33.44,37.75,-7.13,0.07,-1.67
9950,2.81,13.63,51,-6.69,1.34,0.57
9960,15.94,11.75,61.25,-6.24,2.19,0.2
9970,30.87,17.62,63.88,-5.79,2.68,-0.9
9980,34.5,20,58.31,-5.6,1.78,-2.67
9990,20.31,16.06,49.75,-5.53,0.68,-2.85
10000,-1.25,5.31,47.06,-5.38,-0.29,-2.57